time,seconds_elapsed,ax,ay,az,gx,gy,gz
1783201497841685200,0.088685302734375,0.3251943694129586,0.7696341269314289,-0.0537421115815639,0.4745356440544128,0.2473008632659912,0.9580951929092408
1783201497851622400,0.098622314453125,0.4532464565694332,0.7134218258440495,0.2497229488432407,0.4250008463859558,0.2513669729232788,0.9984338283538818
1783201497861559300,0.108559326171875,0.5513303987026215,0.6445099099203944,0.5323357753753661,0.3509193360805511,0.2585141658782959,1.059481859207153
1783201497871495200,0.1184951171875,0.5719105376556516,0.587342500065267,0.7143722584366798,0.2709030508995056,0.2634021341800689,1.1090469360351562
1783201497881432300,0.128432373046875,0.4622758584603667,0.5022936883330344,0.7116969017475843,0.2038190066814422,0.2942270338535309,1.1290894746780396
1783201497891369200,0.138369140625,0.250008633916825,0.4859606854304671,0.6859165638029575,0.151923581957817,0.3360535800457001,1.1302576065063477
1783201497901305000,0.14830517578125,0.0524753065161407,0.5554948249056935,0.7707306899964809,0.1075410917401313,0.3546399474143982,1.122117519378662
1783201497911242200,0.1582421875,-0.0110362116686999,0.5955351588711142,0.8747013520807028,0.074686475098133,0.338250070810318,1.0992273092269895
1783201497921179400,0.168179443359375,0.0492240496352314,0.5995934943512081,0.9135001615524292,0.0703828409314155,0.3024450540542602,1.0654650926589966
1783201497931116300,0.1781162109375,0.1205307517409324,0.6822279384180903,0.947474911868572,0.0795955136418342,0.2441391199827194,1.0294618606567385
1783201497941052200,0.18805224609375,0.2153105377621948,0.8014069832891225,0.9828203660160304,0.0708647668361663,0.1791413873434066,0.996552586555481
1783201497950989300,0.1979892578125,0.3765510471627116,0.9580433598950504,1.1090642347067594,0.0379475653171539,0.1377465426921844,0.9797570705413818
1783201497960926200,0.20792626953125,0.5507610743820667,1.1486834206506609,1.2920435515761377,-0.0326077863574028,0.1206094250082969,0.996784806251526
1783201497970862300,0.2178623046875,0.7783850041419267,1.363451083707809,1.550374169766903,-0.1597505658864975,0.1041428297758102,1.0637489557266235
1783201497980799200,0.22779931640625,1.028048185621947,1.4844725415751336,1.7833868068277834,-0.316076248884201,0.0575585886836051,1.1731159687042236
1783201497990736100,0.237736083984375,1.2012206864871084,1.385924781322479,1.830744185808301,-0.4664252698421478,-0.0327723734080791,1.297948956489563
1783201498000673300,0.24767333984375,1.17312125794515,1.2477312393799422,1.5823124458193778,-0.5803078413009644,-0.1307725757360458,1.4210220575332642
1783201498010609400,0.257609375,0.8906463785789906,1.273918112298846,1.205478197801113,-0.6218406558036804,-0.2068777382373809,1.5105199813842771
1783201498020546300,0.26754638671875,0.4771000642351806,1.3897440473496914,0.7836901248127222,-0.6017592549324036,-0.2862662971019745,1.5551234483718872
1783201498030483200,0.277483154296875,0.1175179797910153,1.4001196031525731,0.4192389730274677,-0.5583348274230957,-0.3713564276695251,1.5524249076843262
1783201498040420400,0.28742041015625,-0.0938090412929654,1.3963941528886556,0.2757680752038955,-0.5118484497070312,-0.4461898803710937,1.5395543575286863
1783201498050356500,0.2973564453125,-0.202291627843678,1.346150112555921,0.1586743121743202,-0.4738438427448272,-0.4855838716030121,1.5199061632156372
1783201498060293000,0.307293212890625,-0.2536380764603614,1.2024620648503304,-0.1091705688148736,-0.4104550778865814,-0.4630844891071319,1.5030368566513062
1783201498070230300,0.317230224609375,-0.3349554465793073,1.0761929155878722,-0.6420312448471784,-0.3063603639602661,-0.3940513730049133,1.5071806907653809
1783201498080166400,0.32716650390625,-0.4776534603342414,1.0795682372398674,-1.0183709873467683,-0.1814202964305877,-0.2945729792118072,1.5390081405639648
1783201498090103300,0.337103271484375,-0.6522169771663844,1.0892059802874925,-1.1536129860073328,-0.0622406378388404,-0.2323769927024841,1.5854270458221436
1783201498100040200,0.347040283203125,-0.7925538147479295,0.9979438469983636,-1.1910732403516768,0.0317287147045135,-0.2117028087377548,1.6225357055664062
1783201498109977300,0.356977294921875,-0.8920236582815647,0.7704425207048654,-1.2096306413054465,0.1010883450508117,-0.2154892832040786,1.648032307624817
1783201498119913200,0.366913330078125,-1.0574138347074389,0.5199240375697612,-1.237765433421731,0.1561771780252456,-0.2290386855602264,1.6542381048202517
1783201498129850400,0.376850341796875,-1.3343623518675565,0.3336594154193997,-1.2685896107524632,0.2089221477508545,-0.2368678450584411,1.6381700038909912
1783201498139787300,0.386787353515625,-1.7119903806120156,0.1195147065661847,-1.475019361314177,0.2811172604560852,-0.212251216173172,1.5900521278381348
1783201498149724200,0.39672412109375,-2.190655940598249,-0.1345890877097845,-1.8081658587753773,0.3867965638637543,-0.0932068526744842,1.506332278251648
1783201498159660300,0.406660400390625,-2.747619669012725,-0.3568051670767366,-2.09018714915514,0.516196608543396,0.08047766238451,1.4007418155670166
1783201498169597400,0.416597412109375,-3.159237645642459,-0.4902203887015581,-2.2278251030415297,0.6466414332389832,0.2436021417379379,1.2988269329071045
1783201498179534000,0.4265341796875,-3.336993674905598,-0.5698917451791465,-2.2490303881555795,0.7749121189117432,0.3553101420402527,1.1949011087417605
1783201498189471200,0.43647119140625,-3.3042736008256672,-0.761992964528501,-2.096160962867737,0.8819395303726196,0.4084711074829101,1.102406620979309
1783201498199407400,0.446407470703125,-3.259403362485766,-1.0112997337862848,-1.8750334093898533,0.9604747891426086,0.38867849111557,1.0002479553222656
1783201498209344500,0.456344482421875,-3.2818983951494096,-1.2076821375861764,-1.6251292587608095,1.0344438552856443,0.3058421909809112,0.871712327003479
1783201498219281200,0.46628125,-3.33130160074383,-1.371074125932157,-1.403513629505038,1.1062159538269043,0.1921899169683456,0.7234771251678467
1783201498229218300,0.47621826171875,-3.371819489093125,-1.403615482444316,-1.1794015072584152,1.165871500968933,0.0770268589258194,0.5522571802139282
1783201498239154400,0.486154541015625,-3.3323861811101434,-1.346524060434848,-0.9262281257003544,1.207446575164795,0.0159517154097557,0.3811372220516205
1783201498249091300,0.49609130859375,-3.212582574599981,-1.269651394765079,-0.5805062243044377,1.2098878622055054,0.0114432498812675,0.236311599612236
1783201498259027700,0.50602783203125,-3.0395743243858218,-1.1964642857402563,-0.1810515636771917,1.17034649848938,0.0665291622281074,0.1113466247916221
1783201498268964900,0.51596484375,-2.815117041963339,-1.0764131342098116,0.1935854665577411,1.0888772010803225,0.1957942098379135,-0.001415607985109
1783201498278900700,0.525900634765625,-2.5792349869459867,-0.9293295988470316,0.5580389564305543,0.9854500889778136,0.3546337485313415,-0.091918833553791
1783201498288837600,0.535837646484375,-2.350537582735717,-0.7795709990561008,0.8573714470952749,0.867231547832489,0.5015406012535095,-0.175927460193634
1783201498298774800,0.54577490234375,-2.103993263928592,-0.624435674662888,1.0692828439384698,0.7499634623527527,0.6198139786720276,-0.2580979168415069
1783201498308711700,0.555711669921875,-1.859382105141133,-0.4275932521358132,1.2764707193911076,0.6569456458091736,0.7262759804725647,-0.3235474824905395
1783201498318647800,0.565647705078125,-1.6345662185393273,-0.2006172648906707,1.5342577322244644,0.5620033740997314,0.7762778401374817,-0.3789369165897369
1783201498328584700,0.575584716796875,-1.3696383940406145,-0.0012000234395265,1.7865630987763403,0.462332934141159,0.780653178691864,-0.4248695373535156
1783201498338521600,0.585521484375,-1.0855397128649056,0.1141889814987778,1.992611741065979,0.3745884001255035,0.7362973093986511,-0.4718610942363739
1783201498348458800,0.595458740234375,-0.8383744856804609,0.2539922967255115,2.180902023825049,0.3135937750339508,0.6567510962486267,-0.5027660131454468
1783201498358395000,0.605394775390625,-0.5458716949053108,0.3287304345846176,2.421232290422916,0.2546470761299133,0.5471985936164856,-0.5183113217353821
1783201498368331800,0.615331787109375,-0.3103231096260249,0.3378992449462413,2.571166246780753,0.1900656670331955,0.3641315698623657,-0.5541278719902039
1783201498378268700,0.6252685546875,-0.2664316531904042,0.4898769820913672,2.547781279540062,0.1316771954298019,0.1801694482564926,-0.5966383218765259
1783201498388205800,0.635205810546875,-0.1975182759620249,0.6335571387514471,2.631062204816937,0.0622248910367488,0.0382810272276401,-0.6108518838882446
1783201498398142000,0.645141845703125,-0.1607620782338082,0.7474275558203458,2.7445880462318657,-0.0269729308784008,-0.0661167576909065,-0.5894438028335571
1783201498408078600,0.65507861328125,-0.14568959678635,0.8514844348832964,2.747015565639734,-0.1314546018838882,-0.1375113129615783,-0.5469493269920349
1783201498418015700,0.665015625,-0.1871868515618145,0.8290499002352356,2.6518250068604945,-0.2594730854034424,-0.1819664537906646,-0.5255313515663147
1783201498427952600,0.67495263671875,-0.2568837803833186,0.6905225962936877,2.4528753829210994,-0.3878923058509826,-0.2068347781896591,-0.5174680948257446
1783201498437889800,0.684889892578125,-0.2974326483927667,0.5927011044889688,2.1769348737597465,-0.5056299567222595,-0.2258455753326416,-0.4952526092529297
1783201498447825700,0.69482568359375,-0.2927500435344874,0.5703101167216896,1.8683359575778244,-0.601984977722168,-0.2722396850585937,-0.4425694346427917
1783201498457762800,0.7047626953125,-0.365527110453695,0.487152525563538,1.4134960943371058,-0.6646787524223328,-0.3477823436260223,-0.393358826637268
1783201498467699700,0.71469970703125,-0.5588144708476961,0.335339331330359,0.8404875323116778,-0.6800712943077087,-0.4256161451339721,-0.375422716140747
1783201498477636900,0.724636962890625,-0.916494082671404,0.1541682329267263,0.0739496178299188,-0.6203820109367371,-0.4450553357601166,-0.4175383448600769
1783201498487572700,0.73457275390625,-1.4409803135901689,0.0565156679481267,-0.6608049189001322,-0.5216155052185059,-0.3846042156219482,-0.5084477066993713
1783201498497509600,0.744509521484375,-1.8440946657687425,0.0611895049780607,-1.184280511471629,-0.426796555519104,-0.2684531211853027,-0.6284615993499756
1783201498507446800,0.75444677734375,-1.9296653094179927,0.0445174793794751,-1.4275158518612383,-0.3343909978866577,-0.1145261526107788,-0.7326551079750061
1783201498517384000,0.764384033203125,-1.846989656557888,-0.0372936656057834,-1.5217314281284808,-0.269984096288681,0.0143384989351034,-0.7782194018363953
1783201498527319600,0.774319580078125,-1.66179032555148,-0.1067012560918927,-1.4475696288526056,-0.2470977157354354,0.046738252043724,-0.8023353815078735
1783201498537256700,0.784256591796875,-1.4092460356771943,-0.2216863564044237,-1.367255736687779,-0.245488703250885,0.0216458551585674,-0.8133457899093628
1783201498547193900,0.79419384765625,-1.1682878464393318,-0.4396887635990977,-1.4324106381654738,-0.2167201787233352,-0.0029841237701475,-0.8292062282562256
1783201498557130800,0.804130859375,-1.124526007732749,-0.568405452144146,-1.6154302870452404,-0.1416524201631546,0.0122975762933492,-0.8663063645362854
1783201498567068000,0.81406787109375,-1.2047655194871127,-0.4417617704808712,-1.829116292345524,-0.0088448477908968,0.0462582036852836,-0.9135950207710266
1783201498577003800,0.824003662109375,-1.18525330202654,-0.3240712106019258,-1.9068015895724293,0.1244732588529586,0.0689829587936401,-0.9463801383972168
1783201498586940700,0.833940673828125,-0.9830211492851376,-0.3049073681876063,-1.7031015562355518,0.2079505920410156,0.060448057949543,-0.9482877850532532
1783201498596877800,0.8438779296875,-0.6890541311763226,-0.2500000122189522,-1.3509049058675766,0.2380614280700683,0.0263234693557024,-0.9278602600097656
1783201498606815000,0.85381494140625,-0.4481491334304213,-0.2222358069807291,-1.0734493159681555,0.2636434733867645,0.0276840794831514,-0.8994970321655273
1783201498616751600,0.863751708984375,-0.399880630954355,-0.1734381660640239,-1.0010182860076426,0.3167601525783539,0.0868772640824318,-0.8815330862998962
1783201498626687700,0.873687744140625,-0.514075896063447,-0.0532511131942272,-0.9201496825695036,0.3634786307811737,0.1699071824550628,-0.8748932480812073
1783201498636625000,0.883625,-0.5848186806760728,0.0792705205917358,-0.7986305043131112,0.4097938537597656,0.2333997786045074,-0.8835061192512512
1783201498646561800,0.893561767578125,-0.5092440919928253,0.1470814895361661,-0.6511714136362076,0.437294453382492,0.2497422695159912,-0.8880681395530701
1783201498656498700,0.903498779296875,-0.3504569670937955,0.0786705088719725,-0.5975549742609262,0.4682453572750091,0.2027768343687057,-0.9046332240104676
1783201498666435800,0.913435791015625,-0.5023360661700368,0.2264449491083622,-0.6741676738202571,0.541448712348938,0.1848196685314178,-0.9450442790985109
1783201498676371700,0.923371826171875,-0.5244250022508203,0.4115189001694321,-0.3842114987879991,0.613865852355957,0.255907654762268,-0.9560776948928832
1783201498686308900,0.933308837890625,-0.2538961428746581,0.4492807678088545,-0.0761526808321475,0.6446378827095032,0.2713305354118347,-0.962898850440979
1783201498696245800,0.943245849609375,-0.089168668141216,0.4435276111096143,2.9810616374e-05,0.6646198630332947,0.2971859872341156,-0.9708139896392822
1783201498706182700,0.9531826171875,-0.0154741941161453,0.4564698025301099,0.1739648202866315,0.6682044863700867,0.2830619215965271,-0.982856273651123
1783201498716118800,0.963118896484375,0.0803838886611163,0.5668403947845101,0.700244364362955,0.5871968269348145,0.227541908621788,-0.9923285245895386
1783201498726056000,0.973055908203125,0.5450394818648696,0.5082958513572812,1.5459709663718937,0.3198130428791046,-0.1591597348451614,-0.8877177238464355
1783201498735992600,0.98299267578125,0.927201062385738,0.098194416770339,1.2341723773658275,0.1523959338665008,-0.3681618869304657,-0.7176645398139954
1783201498745929700,0.9929296875,0.8362623158320784,-0.088334117013216,0.9203986888945104,0.1009178310632705,-0.4572518169879913,-0.6397252678871155
1783201498755867000,1.002866943359375,-0.1402408298611641,0.3285696910649537,0.1257885261386633,0.1491471827030182,-0.4352390766143799,-0.6878371834754944
1783201498765802800,1.012802734375,-0.7239335752472281,0.4798895488232373,-0.3710352063506841,0.2589000463485718,-0.3553887009620666,-0.767438530921936
1783201498775739600,1.02273974609375,-1.0849408701889216,0.3697401981040835,-0.6809978121012449,0.373989462852478,-0.3565298914909363,-0.8516350388526917
1783201498785676800,1.0326767578125,-1.1915911267459391,0.4594546635597944,-0.5245785853773355,0.4531401991844177,-0.478004902601242,-0.8964858651161194
1783201498795613700,1.04261376953125,-0.9542016628403216,0.4797852116659283,0.0485673392921686,0.4351935684680938,-0.748589277267456,-0.8733326196670532
1783201498805550800,1.05255078125,-0.5949650308329612,0.0895253726243972,0.5884527993947267,0.3350693583488464,-1.07151460647583,-0.827551543712616
1783201498815487700,1.06248779296875,-0.4561690660178661,-0.2422328853487968,0.9765624746650456,0.1912648379802703,-1.338168978691101,-0.8079167008399963
1783201498825423600,1.072423583984375,-0.5823585741728544,-0.2428241292402148,1.1962749006479978,0.04737264290452,-1.4694353342056274,-0.8477006554603577
1783201498835360800,1.08236083984375,-0.9068820585869252,-0.0740323276773095,1.1712018341898918,-0.0621375106275081,-1.4509284496307373,-0.9328909516334534
1783201498845298000,1.0922978515625,-1.283625851842761,0.1032940779969096,0.9511690902113914,-0.1395329684019088,-1.320637822151184,-1.030012845993042
1783201498855234800,1.10223486328125,-1.5139602096050977,0.2375751226708292,0.6694429833859205,-0.1785269677639007,-1.143210530281067,-1.1359083652496338
1783201498865171700,1.112171630859375,-1.6516100000597536,0.3552510695025324,0.3677174601048231,-0.1904507428407669,-0.9801392555236816,-1.2486602067947388
1783201498875107800,1.12210791015625,-1.6337516872860491,0.4390659555256366,0.1200549509227275,-0.1879091262817382,-0.8536292910575867,-1.348852038383484
1783201498885044700,1.132044677734375,-1.4740610376760364,0.4986635151371359,0.0165606741786003,-0.1862305402755737,-0.7437139749526978,-1.4170888662338257
1783201498894982000,1.14198193359375,-1.2194007785610854,0.5599617411866784,0.139720605379343,-0.2114536017179489,-0.6400656700134277,-1.4467154741287231
1783201498904918800,1.151918701171875,-0.9373115375116466,0.6019093700781464,0.3048644058287144,-0.258200854063034,-0.5487677454948425,-1.4535174369812012
1783201498914855700,1.161855712890625,-0.6786730224154889,0.664274056315422,0.3917676132559776,-0.3059850335121155,-0.5067772269248962,-1.441947102546692
1783201498924791800,1.171791748046875,-0.3988324370756745,0.6858662949204445,0.4129518555819988,-0.3509671688079834,-0.5222941040992737,-1.4232584238052368
1783201498934729000,1.18172900390625,-0.1857764002420008,0.7134428686320782,0.3931581908315419,-0.3882572650909424,-0.5878677368164062,-1.4143908023834229
1783201498944665600,1.19166552734375,-0.0054766778454184,0.7716706011950969,0.3903483941078186,-0.4278731048107147,-0.675525426864624,-1.4203336238861084
1783201498954602800,1.201602783203125,0.1533060631394386,0.7758569469690323,0.3990735523551702,-0.4711633324623108,-0.7651951909065247,-1.429027795791626
1783201498964539600,1.21153955078125,0.2962780715301633,0.7325815766051411,0.4498176511645317,-0.5273184776306152,-0.8615411520004272,-1.4211161136627195
1783201498974476800,1.221476806640625,0.4514044819645583,0.640079526257515,0.4490893368899822,-0.5765396952629089,-0.9656440615653992,-1.4062702655792236
1783201498984412700,1.23141259765625,0.5007838682919741,0.5419806788161396,0.3704746498584747,-0.6229029297828674,-1.0628582239151,-1.405709981918335
1783201498994349800,1.241349853515625,0.4388986361347138,0.5010194306135177,0.2829448349654674,-0.6661707162857056,-1.1274821758270264,-1.4269976615905762
1783201499004286700,1.25128662109375,0.4184316021673381,0.4993360075712204,0.1049900682598352,-0.6827211976051331,-1.1391284465789795,-1.4703158140182495
1783201499014224000,1.261223876953125,0.4116860734298825,0.5807002855718135,-0.2660141584306955,-0.6539040803909302,-1.1155109405517578,-1.512228012084961
1783201499024160800,1.271160888671875,0.5103665201514959,0.6257417888253927,-0.5321732782900334,-0.610575258731842,-1.090131759643555,-1.5301625728607178
1783201499034096600,1.2810966796875,0.6634747226312756,0.548843258062005,-0.6748889738321304,-0.5942161083221436,-1.0448036193847656,-1.5345667600631714
1783201499044033800,1.29103369140625,0.7411635269895196,0.4487672653287649,-0.6195563781887292,-0.6152157187461853,-0.9768921732902528,-1.5285019874572754
1783201499053970700,1.300970703125,0.7429778829351067,0.4004202907890081,-0.4949421565264463,-0.6619725823402405,-0.9163010716438292,-1.5239311456680298
1783201499063907800,1.310907958984375,0.5751182476557791,0.3528624208003282,-0.4496645064294338,-0.7460392713546753,-0.89024817943573,-1.5419481992721558
1783201499073844700,1.3208447265625,0.3053606649130582,0.3079790307179093,-0.410228568097949,-0.8599592447280884,-0.9299580454826356,-1.5986552238464355
1783201499083781600,1.33078173828125,-0.1533423034965992,0.2130523835718631,-0.4408563460737466,-0.994323194026947,-1.066488265991211,-1.702386498451233
1783201499093717800,1.3407177734375,-0.6920594504721462,-0.0046150925800204,-0.6036258186072111,-1.1412700414657593,-1.2846829891204834,-1.854969501495361
1783201499103655000,1.350655029296875,-1.3077883793272078,-0.3299409794181585,-0.8671183496057987,-1.2917362451553345,-1.475031852722168,-2.066214084625244
1783201499113591600,1.360591552734375,-1.6911507139399646,-0.5493482849746942,-1.139962646317482,-1.4273109436035156,-1.5714558362960815,-2.319936513900757
1783201499123528700,1.37052880859375,-1.5284472923800347,-0.6312795492082834,-1.621068585193157,-1.4950305223464966,-1.5131874084472656,-2.518322229385376
1783201499133465900,1.3804658203125,-1.0823241118192672,-0.4043155446618795,-2.057593624064326,-1.5045171976089478,-1.3147106170654297,-2.606882333755493
1783201499143402800,1.39040283203125,-0.670249623593688,0.0125227969646453,-2.4282418769240377,-1.445079684257507,-1.0138046741485596,-2.599952459335327
1783201499153338600,1.400338623046875,-0.3648778527647257,0.4236740328654647,-2.767290291905403,-1.3190639019012451,-0.6601259112358093,-2.534331083297729
1783201499163275800,1.41027587890625,-0.1000233857631683,0.7384270877629519,-2.992467413035035,-1.1520174741744995,-0.2859512567520141,-2.463174343109131
1783201499173212700,1.420212646484375,0.1888843031294644,0.90687811306417,-3.1033453702896834,-0.949341893196106,0.0194027256220579,-2.382497549057007
1783201499183149800,1.43014990234375,0.4666271855376661,0.9791250186294316,-3.1163959905207155,-0.7181398868560791,0.2260075658559799,-2.307532787322998
1783201499193087000,1.4400869140625,0.6995128352180123,0.9305757995158432,-2.9284412233263253,-0.4813871383666992,0.3333564102649688,-2.260067939758301
1783201499203023600,1.450023681640625,0.897416749496758,0.9164195561304688,-2.4914731168627737,-0.2847595810890198,0.3279323577880859,-2.223317861557007
1783201499212960800,1.459960693359375,1.1435970572970806,0.9465937451198696,-1.9565163453340528,-0.1400233209133148,0.2572983205318451,-2.1740667819976807
1783201499222897000,1.46989697265625,1.3818028790868817,1.0196998978629708,-1.3769102847397328,-0.0392229333519935,0.169202521443367,-2.09670090675354
1783201499232833800,1.479833740234375,1.5085376000344752,1.1484303226724266,-0.8092915990591049,0.0211556944996118,0.0935600250959396,-1.9967453479766848
1783201499242770700,1.489770751953125,1.529648923254758,1.2750418556317686,-0.2734025151163339,0.0474469549953937,0.0503523610532283,-1.8923611640930176
1783201499252707800,1.499707763671875,1.5163152482986448,1.3783154753625393,0.2392331190109252,0.0540087558329105,0.0117955449968576,-1.8103350400924685
1783201499262645500,1.5096455078125,1.5074823918931186,1.4678446473792195,0.7349941907048225,0.0439161770045757,-0.0090652629733085,-1.7411866188049316
1783201499272582700,1.519582763671875,1.608470823296159,1.5455767063573005,1.2162123577833177,0.0321363732218742,-0.0245287735015153,-1.6637182235717771
1783201499282518500,1.5295185546875,1.8082944535911083,1.6225070935636758,1.6336720461785792,0.0287722647190094,-0.0297483019530773,-1.5730793476104736
1783201499292455400,1.539455322265625,2.0083909094780683,1.716823792117834,2.0320418341785667,0.0269116424024105,-0.0506542138755321,-1.4662988185882568
1783201499302392600,1.549392578125,2.205228801960498,1.7631646875321865,2.448150692486762,0.0003769705072045,-0.0897771120071411,-1.3264011144638062
1783201499312329500,1.55932958984375,2.3612141673117875,1.7254080805897711,2.8571880049735308,-0.0492647662758827,-0.133658766746521,-1.165369987487793
1783201499322266600,1.5692666015625,2.420698914198577,1.7094094242081046,3.203510794872045,-0.1157196909189224,-0.220405638217926,-1.010017156600952
1783201499332203500,1.57920361328125,2.411158640176058,1.7532023887053132,3.3300182829350238,-0.199735626578331,-0.3538417220115661,-0.8405570387840271
1783201499342140400,1.589140380859375,2.503774380031228,1.7903166060909628,3.3080233087480067,-0.2881046533584595,-0.4790859222412109,-0.6492000818252563
1783201499352076500,1.59907666015625,2.478195994399488,1.874597648321092,3.200496415486932,-0.4088477492332458,-0.5903473496437073,-0.435918778181076
1783201499362013700,1.609013671875,2.3853961301490663,1.9739602320879697,3.0498475888580083,-0.541300892829895,-0.6534088850021362,-0.2291868776082992
1783201499371950600,1.61895068359375,2.2673602639637886,2.0634359203517434,2.790956998696923,-0.6565403342247009,-0.6790527105331421,-0.0407264679670333
1783201499381887500,1.628887451171875,1.9895047149613496,2.1826807239353654,2.423727029848098,-0.7930718064308167,-0.6486926674842834,0.1147107928991317
1783201499391824400,1.638824462890625,1.5619956339776515,2.2730405015572903,2.163701882699132,-0.933236837387085,-0.5948249697685242,0.2281982600688934
1783201499401761500,1.648761474609375,1.2276027897171675,2.326031794771552,1.7269874587357044,-1.0880025625228882,-0.5570642352104187,0.3147579133510589
1783201499411698700,1.65869873046875,1.0384738641768694,2.288944173131883,1.3194576282024382,-1.2801830768585205,-0.5450227856636047,0.4015870988368988
1783201499421634600,1.668634521484375,0.904928001909703,2.212823641003668,0.9001461744606495,-1.4933345317840576,-0.5563755631446838,0.4991314709186554
1783201499431571500,1.678571533203125,0.7452747617006301,2.0728993297457694,0.3743248955458402,-1.6739104986190796,-0.5406730771064758,0.5780482292175293
1783201499441508600,1.688508544921875,0.5637932821735739,1.8379703376695515,-0.3018769144505262,-1.78573477268219,-0.4730650186538696,0.6174278855323792
1783201499451445500,1.698445556640625,0.4136138266220688,1.5821232068575917,-0.9641536594688892,-1.8190048933029173,-0.3583121001720428,0.6318874359130859
1783201499461382700,1.708382568359375,0.3264547447375953,1.3183885376662017,-1.6256243488013744,-1.7581080198287964,-0.2214240282773971,0.6160234808921814
1783201499471319600,1.718319580078125,0.2956117165759205,1.1327744883790611,-2.250849420276284,-1.608172059059143,-0.1044662520289421,0.589681088924408
1783201499481256400,1.72825634765625,0.4023483362421393,1.0023010192945598,-2.767424731940031,-1.3679181337356567,-0.0517921149730682,0.5729876160621643
1783201499491192600,1.738192626953125,0.5835336093015968,0.8741350965000688,-3.246872966736555,-1.069385051727295,-0.0789259299635887,0.5758649706840515
1783201499501129700,1.748129638671875,0.8171304759912192,0.7674468460202216,-3.492380343711376,-0.7657753229141235,-0.1667641848325729,0.6034976840019226
1783201499511066400,1.75806640625,1.0519953167900442,0.5942588553249836,-3.5408547440230844,-0.4798867702484131,-0.2794969975948334,0.6633015275001526
1783201499521003500,1.76800341796875,1.2067010175943371,0.3298952405802905,-3.522917520794272,-0.2283330708742141,-0.3672596216201782,0.738804280757904
1783201499530940400,1.7779404296875,1.1515817724406718,0.1434009013272821,-3.4562428624033927,-0.0152677102014422,-0.3832563161849975,0.8029330372810364
1783201499540877600,1.787877685546875,0.9815706582158804,0.1144489476092159,-3.2815497278422114,0.1596897095441818,-0.3404707908630371,0.8555770516395569
1783201499550814700,1.797814697265625,0.7533854413114488,0.1699208055928349,-3.0154601660877463,0.2850202918052673,-0.2681945562362671,0.8876187205314636
1783201499560751400,1.80775146484375,0.502406501057744,0.2693985401719808,-2.6593951498538253,0.3637619912624359,-0.1960018575191497,0.8833552598953247
1783201499570687500,1.8176875,0.3047501317992806,0.3487349656067788,-2.348146595945954,0.427450567483902,-0.1566766798496246,0.8496028184890747
1783201499580624600,1.827624755859375,0.2050809663012623,0.4930196640312671,-2.090470642271638,0.4813321530818939,-0.1347732543945312,0.7966317534446716
1783201499590561500,1.8375615234375,0.2337109945885837,0.6579894230879842,-1.8340999259769917,0.5226435661315918,-0.1344993710517883,0.7545225024223328
1783201499600498400,1.84749853515625,0.4123927603945135,0.7095953994236887,-1.6511095031917091,0.5439057350158691,-0.1275506615638733,0.7511096596717834
1783201499610435600,1.857435546875,0.6620861908823251,0.6633453971631824,-1.493789528235793,0.5571742653846741,-0.0841356813907623,0.7915791869163513
1783201499620372500,1.86737255859375,0.8859251952759921,0.5989576806657015,-1.342875328668952,0.5727982521057129,-0.0222898852080106,0.8602407574653625
1783201499630309600,1.8773095703125,0.9468709546260536,0.6423553622350097,-1.2350544208973646,0.5977609157562256,0.0572001114487648,0.934729814529419
1783201499640246500,1.88724658203125,0.9135022073790432,0.709618780299276,-1.1135399188160895,0.6298335790634155,0.137981504201889,0.9935108423233032
1783201499650182400,1.897182373046875,0.8438343585215509,0.7892113724522292,-0.9474959546566007,0.6581438779830933,0.2026560306549072,1.035912275314331
1783201499660119600,1.90711962890625,0.7975329183347523,0.9028777913816272,-0.7207400399029255,0.687228798866272,0.2531154751777649,1.0560585260391235
1783201499670056700,1.917056640625,0.7927455379277467,1.061680552241206,-0.4547925169676542,0.7209527492523193,0.2690902948379516,1.0695942640304563
1783201499679993600,1.92699365234375,0.8572484052374959,1.2412531294070184,-0.1931727941036224,0.7532995343208313,0.241373211145401,1.0751289129257202
1783201499689930500,1.936930419921875,0.9747453422404824,1.3812779784299432,0.0630623131126165,0.7617931365966797,0.1771683543920517,1.0952566862106323
1783201499699867400,1.946867431640625,1.156881924675405,1.472769244299829,0.336765857002139,0.7505071759223938,0.1134271994233131,1.1418569087982178
1783201499709804500,1.956804443359375,1.3885318950809538,1.4339131516829131,0.6017664544761181,0.7103832364082336,0.0563301183283329,1.2360343933105469
1783201499719741700,1.96674169921875,1.604832028402388,1.2203515034146606,0.7642021650105715,0.6479286551475525,0.039546612650156,1.3841506242752075
1783201499729677300,1.97667724609375,1.6991402513891458,1.0049798831149934,0.8555436471462249,0.5868306756019592,0.05899378657341,1.540133714675903
1783201499739614500,1.986614501953125,1.574650532889366,0.9122476772733032,0.8955950870275496,0.5261702537536621,0.1002368256449699,1.672931432723999
1783201499749551600,1.996551513671875,1.2506420122601092,0.9069630148686468,0.9373404713451862,0.4631840288639068,0.165476381778717,1.773330569267273
1783201499759488500,2.006488525390625,0.8532824242159723,0.9270387114308772,0.9578396540164948,0.3848095834255218,0.2197891622781753,1.8320183753967283
1783201499769425700,2.01642578125,0.5193845238655805,0.9635992404565216,0.9181932878047228,0.3136337101459503,0.238731637597084,1.853621482849121
1783201499779362600,2.026362548828125,0.3521390749618411,1.00582568628937,0.8504775959283113,0.2526587545871734,0.2274177372455597,1.8619115352630613
1783201499789299500,2.036299560546875,0.3462023783892393,0.9777680510625244,0.7111135489016771,0.2024472653865814,0.1923585534095764,1.886319756507873
1783201499799236600,2.046236572265625,0.4356654994323849,0.8823618037059903,0.5470458532512188,0.1458676010370254,0.1394191682338714,1.9411715269088743
1783201499809173500,2.056173583984375,0.5116647432684898,0.7717544800862669,0.3993944548726081,0.0775971785187721,0.0913107991218566,2.0082926750183105
1783201499819109400,2.066109375,0.4675266185954213,0.6538740967236459,0.2804559407591819,-0.012045357376337,0.077494315803051,2.071185111999512
1783201499829046500,2.076046630859375,0.1892360391765832,0.5740373205512762,0.1545353126734495,-0.1021267548203468,0.1157236993312835,2.1065666675567627
1783201499838983400,2.0859833984375,-0.1800473550707101,0.5674653948150575,-0.0203209034949541,-0.1774023324251175,0.2017818838357925,2.0852065086364746
1783201499848920600,2.095920654296875,-0.4864566522538661,0.5640877350755036,-0.280537773823738,-0.2297462373971939,0.304693341255188,2.0283145904541016
1783201499858857700,2.105857666015625,-0.6667720106109977,0.504908400876075,-0.5380863017261028,-0.2576183378696441,0.4128464460372925,1.9687591791152956
1783201499868794400,2.11579443359375,-0.6519087880000471,0.4271718118533492,-0.6936918739795684,-0.2670466601848602,0.4997673630714416,1.930593967437744
1783201499878731500,2.1257314453125,-0.607195493787527,0.3829232125431299,-0.8554828568696975,-0.2486985325813293,0.5388197302818298,1.9100944995880127
1783201499888668400,2.13566845703125,-0.5980711070895195,0.3495826684772968,-1.012992801439762,-0.1958760619163513,0.5184771418571472,1.8916332721710205
1783201499898605600,2.14560546875,-0.5841194463655353,0.2633786953605711,-1.165716680777073,-0.1095417067408561,0.4492147266864776,1.8705601692199707
1783201499908541400,2.15554150390625,-0.6538169597089291,0.1962197605840861,-1.292624566334486,0.0069142580032348,0.3606553673744201,1.83709979057312
1783201499918478600,2.165478515625,-0.8063438551694154,0.1785385579429566,-1.3629507329702375,0.1444433629512787,0.269164890050888,1.7755060195922852
1783201499928415500,2.17541552734375,-0.9428861227735876,0.2098515417039394,-1.3360440213441849,0.2978721857070923,0.1796627640724182,1.697615623474121
1783201499938352600,2.1853525390625,-0.9868141118273138,0.1974922647379338,-1.256885144433379,0.4400141537189483,0.0924210771918296,1.613868236541748
1783201499948289500,2.19528955078125,-0.9586796119719744,0.1642054966859519,-1.1306851148843764,0.5660103559494019,0.0144669618457555,1.5407310724258425
1783201499958226400,2.205226318359375,-0.9164028972566128,0.1722891421593725,-0.9596341362178326,0.6688259840011597,-0.0317785628139972,1.4799600839614868
1783201499968163600,2.21516357421875,-0.9248483617797494,0.1776828178964555,-0.7633627915769815,0.7428983449935913,-0.0431712195277214,1.4169340133666992
1783201499978100500,2.2251005859375,-0.8884428771853446,0.1762448940478265,-0.5423907209217548,0.7912387251853943,-0.0330101922154426,1.3686580657958984
1783201499988037600,2.23503759765625,-0.7659440402418375,0.1846482729949057,-0.30306349388659,0.8175526857376099,0.0103781875222921,1.3358527421951294
1783201499997974500,2.244974609375,-0.6173886787608266,0.1609860962480306,-0.0421276616334915,0.8069149851799011,0.0602139197289943,1.3181520700454712
1783201500007910400,2.254910400390625,-0.4472828719899058,0.1679286088623106,0.237279062333703,0.7723129987716675,0.0800995081663131,1.3108174800872805
1783201500017847600,2.26484765625,-0.2693696063384413,0.1978758572280406,0.4830220016300678,0.7085177302360535,0.0759228691458702,1.3170835971832275
1783201500027784700,2.27478466796875,-0.1429126794189214,0.2264136771872639,0.6652507923930883,0.6301194429397583,0.0580399632453918,1.3448601961135864
1783201500037721600,2.2847216796875,-0.072444181703031,0.2415495792597532,0.755413293877244,0.551990270614624,0.0535200461745262,1.380994200706482
1783201500047658500,2.294658447265625,-0.017379881606996,0.2354213056378066,0.7590881829977035,0.4853098392486572,0.049016423523426,1.4193899631500244
1783201500057595400,2.304595458984375,0.0292480140551924,0.262594705376029,0.7068529688477516,0.4343292117118835,0.0729113668203353,1.4505995512008667
1783201500067532500,2.314532470703125,0.0779737587794661,0.2901262709021568,0.7241437108665705,0.3870153129100799,0.1267084926366806,1.478798747062683
1783201500077469700,2.3244697265625,0.1460956933692097,0.302086173287034,0.8625660931289195,0.3066776096820831,0.2030482739210128,1.5235918760299685
1783201500087406600,2.334406494140625,0.2342743275597691,0.3062736881047487,1.0766612637519837,0.1833422183990478,0.2823978662490845,1.5748534202575684
1783201500097343500,2.344343505859375,0.2376023029386997,0.3036063685916364,1.2695739456146955,0.031930074095726,0.3599898517131805,1.6319113969802856
1783201500107279600,2.354279541015625,0.1194768587738275,0.3010056845739484,1.333490829730034,-0.1195555701851844,0.4144474864006042,1.6673411130905151
1783201500117216500,2.364216552734375,0.0180053200289607,0.3150108290508389,1.3249983111947774,-0.2583725750446319,0.4408641755580902,1.6875176429748535
1783201500127153700,2.374153564453125,-0.0138157593846321,0.291677591997385,1.2411848864763977,-0.3737413585186004,0.4334814250469208,1.6937912702560425
1783201500137090600,2.384090576171875,-0.0592310643866658,0.2808757005412131,1.1169809991806745,-0.464034765958786,0.4096514582633972,1.6886823177337646
1783201500147027500,2.39402734375,-0.1182157527968287,0.3138583710800856,0.976063877493143,-0.5299839377403259,0.3704398870468139,1.671488881111145
1783201500156964600,2.403964599609375,-0.1659124467343092,0.3355301777273416,0.8183335681706666,-0.5763077735900879,0.3360744714736938,1.6513748168945312
1783201500166901500,2.413901611328125,-0.2154281727924943,0.3736012574464082,0.6107470487892628,-0.5995586514472961,0.2891038656234741,1.638878345489502
1783201500176838700,2.423838623046875,-0.2151341582819819,0.3951476110830902,0.3796756089240312,-0.6069254875183105,0.2489212751388549,1.63319194316864
1783201500186775600,2.433775634765625,-0.1997477885797619,0.3958317939549684,0.1705325077503919,-0.6040815114974976,0.2138109654188156,1.6306244134902954
1783201500196712400,2.44371240234375,-0.2145578196987509,0.4006806952908635,-0.0310474646925926,-0.592625081539154,0.1802940219640731,1.6343426704406738
1783201500206649600,2.453649658203125,-0.2788844536587596,0.4068053887162357,-0.2044225023925304,-0.569926917552948,0.1807757914066314,1.6399298906326294
1783201500216585700,2.463585693359375,-0.3866208980172872,0.4200545271940529,-0.3652455170333385,-0.5269504189491272,0.2112458348274231,1.6357673406600952
1783201500226522400,2.4735224609375,-0.5674170256286859,0.456073058297485,-0.4766986438274383,-0.4894012808799743,0.2538352012634277,1.6151527166366575
1783201500236459500,2.48345947265625,-0.7195496610745787,0.4422998959455639,-0.5447644643157721,-0.4633223116397857,0.2743295431137085,1.575522780418396
1783201500246396400,2.493396484375,-0.809334269157052,0.3616795681800693,-0.6117232003450394,-0.4403796195983886,0.2595592737197876,1.523822546005249
1783201500256333800,2.503333740234375,-0.8136039093002676,0.2757221902355551,-0.743193863773346,-0.391567587852478,0.2030864357948303,1.4782021045684814
1783201500266271000,2.51327099609375,-0.758762896566093,0.2082238674368709,-0.957013140064478,-0.3104489743709564,0.1288919746875763,1.4510079622268677
1783201500276207900,2.523207763671875,-0.7560296722099185,0.1753000874783843,-1.1944833410561084,-0.199840173125267,0.0383490324020385,1.442253589630127
1783201500286145000,2.53314501953125,-0.7797340806633234,0.1580297306604683,-1.37124568310678,-0.074061132967472,-0.0627180784940719,1.4383893013000488
1783201500296081700,2.54308154296875,-0.8264610527858137,0.0929593565279152,-1.5015414575368164,0.067562311887741,-0.1568509638309478,1.4257608652114868
1783201500306018800,2.553018798828125,-0.8850783691883086,-0.0248739636894315,-1.542827992171049,0.1956103593111038,-0.2338238805532455,1.4014160633087158
1783201500315956000,2.5629560546875,-0.9868094356521964,-0.0642657158193178,-1.4522504801452158,0.2859269380569458,-0.2853249013423919,1.361061453819275
1783201500325892900,2.572892822265625,-1.1034060628145932,-0.0519865000858902,-1.3141928395420313,0.3534151911735534,-0.296440839767456,1.312442421913147
1783201500335828700,2.582828857421875,-1.219840485152602,-0.0481182803504168,-1.1986276012539865,0.4129914343357086,-0.2709757089614868,1.2517282962799072
1783201500345766000,2.592765869140625,-1.335896429567039,-0.0437316627640277,-1.1175479854136705,0.4535866677761078,-0.2314263731241226,1.1871540546417236
1783201500355702800,2.602702880859375,-1.3811647273138166,-0.0526983016170561,-1.0992185479968786,0.4970878064632416,-0.2033036649227142,1.1098347902297974
1783201500365640000,2.612639892578125,-1.3196288931161164,-0.0855563959281891,-1.1099398484975098,0.5566844344139099,-0.1830732971429824,1.0462543964385986
1783201500375577000,2.6225771484375,-1.220519699588418,-0.0841992091655731,-1.0976935303866862,0.6206311583518982,-0.1906337440013885,0.9935877323150636
1783201500385513700,2.632513671875,-1.071568909049034,-0.0897781052764505,-1.0336270086675885,0.6898614764213562,-0.2241151630878448,0.9515170454978944
1783201500395451000,2.642450927734375,-0.8960118511348962,-0.1286056293860077,-0.9258610459536314,0.750100314617157,-0.2717204988002777,0.9136087894439696
1783201500405387800,2.6523876953125,-0.7585159360677003,-0.1569270301155746,-0.7843032882750034,0.7987662553787231,-0.3148334920406341,0.8827455639839172
1783201500415325000,2.662324951171875,-0.6706532359585166,-0.1885349051699042,-0.6245049405068158,0.8255086541175842,-0.3234331011772156,0.852194607257843
1783201500425262000,2.672261962890625,-0.6735895816713571,-0.2283192185476422,-0.4701636891007423,0.8297021985054016,-0.2878518104553222,0.8294821381568909
1783201500435198700,2.68219873046875,-0.7601143111750484,-0.242742424039822,-0.3462742745816707,0.8274838328361511,-0.2184943258762359,0.7931690812110901
1783201500445136000,2.692135986328125,-0.8151236662134528,-0.2382129639166407,-0.2490314594477415,0.8253629803657532,-0.1492756754159927,0.7461167573928833
1783201500455072800,2.70207275390625,-0.8133885129839181,-0.2274524456504732,-0.1825456016272306,0.8222822546958923,-0.1078914776444435,0.6891922354698181
1783201500465009000,2.7120087890625,-0.7578647786825895,-0.1832932051241397,-0.1090764607906341,0.8172174692153931,-0.0944689735770225,0.6348526477813721
1783201500474945800,2.72194580078125,-0.6669815617084502,-0.0941960678491741,-0.0273076936423778,0.8233422040939331,-0.0836083367466926,0.5841391682624817
1783201500484883000,2.731883056640625,-0.5386693623110652,-0.0103688703337684,0.0436807362943887,0.8352384567260742,-0.0804454535245895,0.5532036423683167
1783201500494819800,2.74181982421875,-0.4061874760136008,0.0288356703946366,0.0916951178789138,0.8479278683662415,-0.0786139965057373,0.5240591168403625
1783201500504757000,2.751757080078125,-0.2758876099303364,0.0614647417228668,0.159090491759777,0.843183159828186,-0.0785518363118171,0.4979066550731659
1783201500514694000,2.76169384765625,-0.1643225471943616,0.1095617600895464,0.2269470534116029,0.8453147411346436,-0.0720388144254684,0.4791134893894195
1783201500524630800,2.771630859375,-0.0778010325610637,0.1948249452248215,0.2754395739018916,0.8525789380073547,-0.0757599472999572,0.4660278260707855
1783201500534568000,2.78156787109375,0.0549833438143134,0.2962878622718155,0.3510731992959976,0.861293375492096,-0.076008141040802,0.4661042690277099
1783201500544504800,2.7915048828125,0.2277224216982722,0.3787072022832929,0.4657014489948749,0.8558945059776306,-0.078544870018959,0.4866680204868316
1783201500554442000,2.80144189453125,0.4274503365337848,0.409433179936558,0.6591746873497962,0.8260218501091003,-0.0797680541872978,0.5180575847625732
1783201500564379000,2.81137890625,0.6259226983502507,0.3995204924050718,0.882028333967924,0.7642374634742737,-0.0895780548453331,0.5645184516906738
1783201500574315800,2.821315673828125,0.7921113316774367,0.3981668858390301,1.0995283445984123,0.678968071937561,-0.1048001497983932,0.6202605366706848
1783201500584253000,2.8312529296875,0.9300570363387464,0.4398844323016703,1.317699970880151,0.5820730328559875,-0.130181223154068,0.6860188245773315
1783201500594189800,2.84118994140625,1.0564388521954418,0.4982529615748673,1.4618658652305605,0.4751455187797546,-0.1967471837997436,0.7573190927505493
1783201500604127000,2.851126953125,1.140193532463908,0.5821561834685504,1.5243126767933368,0.3606656491756439,-0.2823553085327148,0.8392263054847717
1783201500614062800,2.861062744140625,1.1844085217654703,0.6297224559593946,1.5313549965202808,0.2449425011873245,-0.373717188835144,0.9359464645385742
1783201500623999700,2.870999755859375,1.223958441865444,0.6044597852133214,1.4419418520987033,0.1242840141057968,-0.4523711800575256,1.0497242212295532
1783201500633937000,2.88093701171875,1.1707342166781425,0.5411955928530544,1.2202040577679871,0.015926644206047,-0.5180780291557312,1.1696038246154783
1783201500643874000,2.8908740234375,1.0336270086675885,0.4728369999632239,0.900122793585062,-0.0605036355555057,-0.5591768026351929,1.2859196662902832
1783201500653811000,2.90081103515625,0.8347817218855023,0.3829661749020218,0.5364139845997095,-0.1061435639858245,-0.5868193507194519,1.3893132209777832
1783201500663747800,2.910747802734375,0.6001102117016911,0.2613753196489066,0.1659708989232778,-0.1199104785919189,-0.6124343276023865,1.4707622528076172
1783201500673684700,2.920684814453125,0.3299365955039858,0.197479843647778,-0.1383148302346468,-0.1189780980348587,-0.6504799723625183,1.5273903608322144
1783201500683622000,2.930621826171875,-0.0455351319894194,0.2167794412709772,-0.4140022414177656,-0.1089193746447563,-0.6832289695739746,1.556175947189331
1783201500693559000,2.94055908203125,-0.6016387364432215,0.1754307281207293,-0.7446943314641714,-0.0872425809502601,-0.6934919953346252,1.5648493766784668
1783201500703496000,2.950495849609375,-1.306037590137124,0.0782110746666789,-1.1608347539544104,-0.0544036664068698,-0.6364049911499023,1.5300953388214111
1783201500713432800,2.960432861328125,-2.177588369232416,-0.003416530445218,-1.7246832734465598,0.0250006094574928,-0.5144338011741638,1.4079164266586304
1783201500723369700,2.97036962890625,-3.106374654982984,-0.0703149145893752,-2.3279314909130333,0.161478653550148,-0.3501832783222198,1.1948726177215576
1783201500733307000,2.980306884765625,-3.912072321203351,-0.1600545144863426,-2.9005682970166204,0.3739019632339477,-0.1807188838720321,0.8967574238777161
1783201500743244000,2.990244140625,-4.406021375039219,-0.2441188086932524,-3.312114377453923,0.6443735361099243,-0.0264503899961709,0.5520214438438416
1783201500753181000,3.000180908203125,-4.519007702749967,-0.2808013931959867,-3.3956635982781647,0.9183385372161864,0.0694921165704727,0.225839614868164
1783201500763117800,3.010117919921875,-4.322583505634963,-0.2463939505510032,-3.174469409304857,1.1493192911148071,0.1006588786840438,-0.042590856552124
1783201500773054000,3.020053955078125,-3.9006796973124143,-0.1677877390868961,-2.8232828127622605,1.3595706224441528,0.0867033749818801,-0.2395526468753814
1783201500782990800,3.029990966796875,-3.49643809466958,0.0646340924739837,-2.479952774938941,1.5619864463806152,0.0454356558620929,-0.3891460001468658
1783201500792928000,3.039927978515625,-3.0798104731842875,0.3706922381319105,-2.047583102181554,1.7379611730575562,-0.0234853513538837,-0.481666088104248
1783201500802865000,3.049864990234375,-2.622621708729863,0.5834454926267266,-1.489414966413379,1.860074639320373,-0.0706530809402465,-0.5330272912979126
1783201500812801800,3.0598017578125,-2.19464647153914,0.7347428462922573,-0.808608877491951,1.9134550094604488,-0.0793094187974929,-0.5538894534111023
1783201500822739000,3.069739013671875,-1.8789403537005185,0.8899874762788414,-0.1331704530835151,1.8963924646377563,-0.0477466098964214,-0.5692996382713318
1783201500832675800,3.07967578125,-1.64944829198122,1.0069365701407194,0.5175041169464588,1.8152683973312376,0.0329253301024436,-0.5806620121002197
1783201500842613000,3.089613037109375,-1.449829390478134,1.106412843415141,1.158994679045677,1.6798298358917236,0.1402736455202102,-0.5858502984046936
1783201500852550000,3.0995498046875,-1.2668711163967847,1.1715224444463848,1.7173884402632713,1.5073935985565186,0.2463596016168594,-0.5891417264938354
1783201500862486800,3.10948681640625,-1.1510264766454696,1.228226766834408,2.1279227133095264,1.3081721067428589,0.3352006375789642,-0.6033271551132202
1783201500872424000,3.119423828125,-1.0525181716203689,1.2664438308954238,2.465881579488516,1.108015060424805,0.3825993239879608,-0.6301252245903015
1783201500882360800,3.12936083984375,-0.9060653353765606,1.2711325732335448,2.7196979351252315,0.9058483242988586,0.388258695602417,-0.658000111579895
1783201500892298000,3.139298095703125,-0.7336240713953971,1.27870359300971,2.9071289707064625,0.7233192324638367,0.3507882952690124,-0.6870322823524475
1783201500902235000,3.14923486328125,-0.568076950842142,1.2892962986946106,3.01178001627028,0.5530798435211182,0.2836042940616607,-0.7135187983512878
1783201500912171800,3.159171875,-0.4213455899178981,1.31224608938843,3.113256523451209,0.3909306228160858,0.2126257270574569,-0.7366787195205688
1783201500922109000,3.16910888671875,-0.2963961449518799,1.37812725931406,3.2565310219198462,0.2361834943294525,0.1364124864339828,-0.7489466071128845
1783201500932045800,3.1790458984375,-0.1361868782952427,1.4603542916238308,3.392211996519565,0.0678714364767074,0.0338751897215843,-0.750619113445282
1783201500941983000,3.18898291015625,-0.0054722939312458,1.528963717469573,3.516836739575863,-0.1171144694089889,-0.0957568362355232,-0.7511777281761169
1783201500951919900,3.198919921875,0.0465621369495987,1.5653727091953158,3.6472763063907614,-0.3191181421279907,-0.2338438630104065,-0.7523511052131653
1783201500961856000,3.20885595703125,0.1015925347760319,1.5196785872519016,3.6226018838614222,-0.5062690377235413,-0.3443230986595154,-0.7517999410629272
1783201500971793000,3.21879296875,0.1736415796816349,1.4001026520177722,3.50102659150362,-0.6764783263206482,-0.4277943074703216,-0.7596666812896729
1783201500981730000,3.22872998046875,0.2546940152540803,1.3165683365017176,3.355855319502949,-0.8300471305847168,-0.47413370013237,-0.7614752054214478
1783201500991666700,3.238666748046875,0.313878610150516,1.313937695737183,3.168732911479473,-0.965201199054718,-0.4909595549106598,-0.7598570585250854
1783201501001603800,3.248603759765625,0.357816243815422,1.3400298761099576,2.9982465809583663,-1.09353506565094,-0.4781250655651092,-0.752846360206604
1783201501011541000,3.258541015625,0.3783399764060974,1.3883295043766497,2.849658193990588,-1.23976469039917,-0.4824319183826446,-0.7267130017280579
1783201501021478000,3.268477783203125,0.439268492360413,1.4281833758592606,2.71677298758924,-1.4339721202850342,-0.5362033247947693,-0.6590790152549744
1783201501031415000,3.2784150390625,0.4856161097764969,1.3789566958755255,2.469624273148179,-1.6484572887420654,-0.5994616150856018,-0.5310366749763489
1783201501041351700,3.2883515625,0.2650856454089283,1.1849544652104378,2.010452518182993,-1.8265905380249023,-0.6284955143928528,-0.4040057957172394
1783201501051288800,3.298288818359375,-0.2307467379555106,0.9223838713623584,1.3820412178874015,-1.9335590600967407,-0.603083610534668,-0.357224702835083
1783201501061226000,3.30822607421875,-0.7223577042326331,0.7063752683334052,0.6831751561403274,-1.9427361488342283,-0.5096204876899719,-0.3780520856380462
1783201501071163000,3.318162841796875,-1.2370008787900209,0.5461787150278687,-0.0127706342458724,-1.8853285312652588,-0.3696048259735107,-0.4458692371845245
1783201501081100000,3.32810009765625,-1.657335830360651,0.4976894094079732,-0.4692366373836993,-1.793223857879639,-0.2079496383666992,-0.5565071105957031
1783201501091036700,3.33803662109375,-1.9526658073857424,0.4745312366604804,-0.8640741596043109,-1.6704334020614624,-0.0784166753292083,-0.6885557174682617
1783201501100973800,3.347973876953125,-2.0533988027229904,0.4715801317699253,-1.2571242138862608,-1.5071964263916016,0.0065761436708271,-0.8015424013137817
1783201501110911000,3.357910888671875,-1.886011607261002,0.5177409944422543,-1.482931449612975,-1.31609845161438,0.0107951238751411,-0.8653679490089417
1783201501120848000,3.367847900390625,-1.5693588562220333,0.5051477625899017,-1.623071741709113,-1.1239848136901855,-0.0815378576517105,-0.8797332644462585
1783201501130785000,3.377784912109375,-1.2405606170982122,0.422119789160788,-1.6685031210631132,-0.9631853103637696,-0.2454207986593246,-0.8727821707725525
1783201501140722000,3.387721923828125,-0.947029506188631,0.2900403461843729,-1.6398802531689405,-0.8210055828094482,-0.4280890226364136,-0.8501944541931152
1783201501150658800,3.397658935546875,-0.8398334523171186,0.2265847229052335,-1.6273019266247748,-0.686309278011322,-0.5723402500152588,-0.8230409026145935
1783201501160596000,3.407595947265625,-0.9211769797906278,0.2539821406576782,-1.6731325344294308,-0.56796795129776,-0.67141193151474,-0.815586507320404
1783201501170532000,3.417531982421875,-1.0210261780306695,0.2684561447553336,-1.6877227853178978,-0.4734292328357696,-0.7271889448165894,-0.833002507686615
1783201501180468700,3.42746875,-1.0425658096656203,0.1881438600257039,-1.7361644524037836,-0.3940802216529846,-0.7149891257286072,-0.8743940591812134
1783201501190406000,3.437406005859375,-1.052654365220666,0.0947069399807602,-1.8070944301515817,-0.3184896111488342,-0.6492149233818054,-0.9403054118156432
1783201501200342800,3.4473427734375,-1.0388540956661103,0.1328719815935939,-1.88555831053555,-0.2326771467924118,-0.5689329504966736,-0.9975247979164124
1783201501210280000,3.457280029296875,-0.9354396061599254,0.242614870403707,-1.893626466178894,-0.1544233560562133,-0.480146586894989,-1.0344452857971191
1783201501220217000,3.467217041015625,-0.7128849424883723,0.2587279469452798,-1.7921733398735522,-0.1023745089769363,-0.4101451337337494,-1.0504779815673828
1783201501230153700,3.47715380859375,-0.4182593143403529,0.22116174800843,-1.6151701748043297,-0.0769557058811187,-0.3672583997249603,-1.054945468902588
1783201501240091000,3.4870908203125,-0.1371279585376381,0.2364158696331083,-1.4117764309376477,-0.0566027611494064,-0.3414851129055023,-1.0342594385147097
1783201501250027800,3.49702783203125,0.09931143810153,0.2499652331665158,-1.2747855427831412,-0.0263377986848354,-0.3009890913963318,-0.9948888421058656
1783201501259964700,3.506964599609375,0.2421963527306914,0.2300306986406445,-1.2015408583521845,0.023739093914628,-0.257294088602066,-0.947809100151062
1783201501269901800,3.51690185546875,0.3339280032277107,0.2621484229132533,-1.1184510717332363,0.0819829553365707,-0.2235691398382187,-0.9001986980438232
1783201501279838500,3.52683837890625,0.3786398361355066,0.3144505648195743,-1.028315458256006,0.1341146379709243,-0.2048960626125335,-0.855754017829895
1783201501289775600,3.536775634765625,0.3782137196779251,0.3487697446592152,-0.8389338731288909,0.1734721660614013,-0.1811353415250778,-0.8162745237350464
1783201501299712800,3.546712646484375,0.3272457489848137,0.3666093527324497,-0.5734001916915178,0.1909468173980713,-0.1714900583028793,-0.7880327701568604
1783201501309649700,3.556649658203125,0.2656082079783082,0.4045689349010586,-0.3086515231519937,0.1927172839641571,-0.1720836758613586,-0.7822055220603943
1783201501319586800,3.5665869140625,0.2027972392782568,0.4006361254967749,-0.0795627815365791,0.1988762766122818,-0.1702194660902023,-0.8003024458885193
1783201501329523500,3.5765234375,0.1494844590246677,0.3445661554895341,0.1169014553278684,0.2150967866182327,-0.1715960502624511,-0.8360271453857422
1783201501339460600,3.586460693359375,0.242044084778428,0.3076169194072485,0.3358329600661993,0.2319492101669311,-0.2005691528320312,-0.8764274716377258
1783201501349397800,3.596397705078125,0.4437076438516378,0.2630430336654186,0.5775011972695588,0.2384641021490097,-0.2451619207859039,-0.906608521938324
1783201501359334700,3.606334716796875,0.6639332800537348,0.2602906662173569,0.8887743010967969,0.2238055169582367,-0.2967623472213745,-0.9182723760604858
1783201501369271800,3.616271728515625,0.7911851567432284,0.3182441118836402,1.2385264809221028,0.1732246279716491,-0.3530477285385132,-0.9156060218811036
1783201501379208400,3.62620849609375,0.9153995654329656,0.409846290782094,1.5883429581552744,0.0779986977577209,-0.4179888367652893,-0.8974837064743042
1783201501389145600,3.6361455078125,1.0767065641984344,0.4375407917849719,1.8635007925063367,-0.0407580435276031,-0.4851564466953277,-0.8606681823730469
1783201501399082800,3.646082763671875,1.1840373503655195,0.4316378513514995,2.0168033485144377,-0.1712092161178589,-0.5464611649513245,-0.8152405023574829
1783201501409019600,3.65601953125,1.2142775903284548,0.4151952505946159,2.056247470152378,-0.2998915612697601,-0.5720445513725281,-0.7772848606109619
1783201501418956800,3.665956787109375,1.1669029679521918,0.3835460206165909,1.9854455026984212,-0.3969075083732605,-0.5408821105957031,-0.7533839344978333
1783201501428893400,3.6758935546875,1.0454022021353244,0.3689673140354454,1.7666712343484163,-0.458886981010437,-0.4935015439987182,-0.7348960041999817
1783201501438829600,3.68582958984375,0.9854670811325312,0.3934332083806395,1.585251421880722,-0.5062152147293091,-0.4629779756069183,-0.7105865478515625
1783201501448766700,3.6957666015625,1.0274790074318647,0.3361101695723831,1.4934768090248107,-0.5517614483833313,-0.4812342226505279,-0.6738964915275574
1783201501458704000,3.705703857421875,1.0298393068224192,0.281440567882359,1.3943465727090836,-0.6047850251197815,-0.5429845452308655,-0.6373774409294128
1783201501468640500,3.715640625,0.9832660639569164,0.3028782004475593,1.2840484611690044,-0.6592532992362976,-0.6403534412384033,-0.6115221381187439
1783201501478577700,3.72557763671875,0.9180936268225312,0.3274149680718779,1.0743301904559135,-0.7269132137298584,-0.7512850761413574,-0.5923928022384644
1783201501488514600,3.7355146484375,0.765558840316534,0.4141014640085398,0.8345002745956182,-0.8051412105560303,-0.8428956866264343,-0.5773059725761414
1783201501498451700,3.74545166015625,0.616280132997036,0.5296434675514697,0.5535667794525623,-0.8886833190917969,-0.8916444182395935,-0.5735310912132263
1783201501508388900,3.755388916015625,0.5084665317490696,0.5896541380085051,0.2390706219255924,-0.9852293133735656,-0.9002397656440735,-0.5706884264945984
1783201501518325500,3.765325439453125,0.4498068375095724,0.596611555930972,-0.1102437510043382,-1.0782116651535034,-0.8626680374145508,-0.5616064667701721
1783201501528262700,3.7752626953125,0.3624199382185936,0.6644771776720881,-0.4982359373748302,-1.1401797533035278,-0.7947390079498291,-0.5538198947906494
1783201501538199600,3.785199462890625,0.2747369785904884,0.768588563401252,-0.9350491455376148,-1.1379369497299194,-0.6965433359146118,-0.5393703579902649
1783201501548136700,3.79513671875,0.2390606850534677,0.8691871187038719,-1.385128662508726,-1.0868875980377195,-0.5978220701217651,-0.5153347849845886
1783201501558073900,3.805073974609375,0.3377402549922466,0.8736408832423388,-1.729669829687476,-1.0301395654678345,-0.515028715133667,-0.4688224792480469
1783201501568010500,3.815010498046875,0.4646726904690265,0.758873809594661,-1.9542530765771864,-0.9728893041610718,-0.4504633247852325,-0.4060221910476684
1783201501577947600,3.82494775390625,0.4475736716300248,0.6922640331335366,-2.136051074707508,-0.8989333510398865,-0.4060001969337463,-0.3556466996669769
1783201501587884500,3.834884521484375,0.3135907331198453,0.6784094030432403,-2.33519300634861,-0.8071717023849487,-0.3975614309310913,-0.3255540430545807
1783201501597821700,3.84482177734375,0.1729290474981069,0.6324827875182032,-2.528173492750525,-0.7029334306716919,-0.4200328290462494,-0.3167300820350647
1783201501607758800,3.8547587890625,0.0560644170492887,0.5361036034762859,-2.6710481782466173,-0.5917379260063171,-0.4375068843364715,-0.3267968297004699
1783201501617695500,3.864695556640625,-0.1234498540580272,0.4321948276471346,-2.740603945031762,-0.4897037148475647,-0.4339476823806762,-0.347628504037857
1783201501627632600,3.874632568359375,-0.2983154225766659,0.3787796829976141,-2.76304257133305,-0.3728071749210357,-0.3945994973182678,-0.3698368668556213
1783201501637569800,3.88456982421875,-0.3797030814528465,0.2785229268699884,-2.799735932958126,-0.2382088005542755,-0.3337758779525757,-0.4019368290901184
1783201501647506700,3.894506591796875,-0.3674012337625026,0.1440299930110573,-2.758938643145561,-0.1013574600219726,-0.2550387382507324,-0.4244466722011566
1783201501657443800,3.90444384765625,-0.2598006907433271,0.0255263631835579,-2.5543033747851847,0.0122457901015877,-0.1867797970771789,-0.4299117922782898
1783201501667380500,3.91438037109375,-0.1787649140447378,-0.0291875160396099,-2.2179460985839365,0.0813151374459266,-0.1256639808416366,-0.4195971190929413
1783201501677317600,3.924317626953125,-0.1246925475955009,-0.0692845486283302,-1.772876518729329,0.1088304221630096,-0.0779483169317245,-0.4036998450756073
1783201501687254800,3.9342548828125,-0.1319055477142333,-0.1510429405130446,-1.384963242813945,0.1176073998212814,-0.0460167489945888,-0.3959308564662933
1783201501697191700,3.944191650390625,-0.2050432646393775,-0.2020721398741006,-1.0851344930648803,0.1027276068925857,-0.0194411147385835,-0.4106441736221313
1783201501707128800,3.95412890625,-0.3176099056333303,-0.2073189544863998,-0.8526105163037776,0.0867883190512657,0.0125250741839408,-0.4409562647342682
1783201501717065500,3.9640654296875,-0.442538015550375,-0.254412860225141,-0.6961924586236476,0.0800139158964157,0.0338385254144668,-0.4973672330379486
1783201501727002600,3.974002685546875,-0.5834557217597961,-0.2899194962836802,-0.5505085609257221,0.0882904827594757,0.0330574214458465,-0.5802258849143982
1783201501736939800,3.983939697265625,-0.6764379568397998,-0.3143324913978576,-0.4052735760390758,0.1083774268627166,0.0220986194908618,-0.6707112193107605
1783201501746876700,3.993876708984375,-0.6681038437366486,-0.3165989750251173,-0.2592342890322208,0.1393992602825164,0.0134934149682521,-0.7688124775886536
1783201501756813800,4.003813720703125,-0.580753477063775,-0.2757425023712218,-0.0958674351274967,0.1696311980485916,0.008836543187499,-0.842843770980835
1783201501766750500,4.01375048828125,-0.4448685043245554,-0.2302374732591211,0.0965706149607896,0.1840135902166366,0.0052937399595975,-0.90082186460495
1783201501776687600,4.0236875,-0.2700292392909527,-0.2120363383971154,0.3248655758500099,0.1832630634307861,0.0072726956568658,-0.9387275576591492
1783201501786624800,4.033624755859375,-0.0781879860520362,-0.1843291240431368,0.5538982033640146,0.176137775182724,0.0093518253415822,-0.9509583711624146
1783201501796561700,4.043561767578125,0.1046241575568914,-0.1651768259361386,0.7490314838856458,0.1564711630344391,0.0184331610798835,-0.9493443369865416
1783201501806498800,4.053498779296875,0.2410363690406083,-0.1780750320844352,0.9517202943533658,0.1321836709976196,0.0315433703362941,-0.9300116896629332
1783201501816435500,4.063435546875,0.256675252199173,-0.1876863255165517,1.1519482676655053,0.1009715646505355,0.0483978912234306,-0.9174579381942748
1783201501826372600,4.07337255859375,0.1767436373502016,-0.1286577979646623,1.343565064498782,0.0516543537378311,0.0463363379240036,-0.9177886843681335
1783201501836309800,4.083309814453125,0.1394365277409553,-0.0185305129468441,1.5214134482204913,-0.0137724615633487,0.0269325897097587,-0.9265142679214478
1783201501846246700,4.09324658203125,0.1491068578839302,0.0757876469120383,1.6964193019926548,-0.0998583436012268,-0.0251681618392467,-0.9384942054748536
1783201501856182500,4.1031826171875,0.1852215428382158,0.1961525405667722,1.7900106088817118,-0.1977100223302841,-0.0914300382137298,-0.9498739242553712
1783201501866119700,4.11311962890625,0.2996732669264078,0.2964969749778509,1.8323650650084016,-0.2924884557723999,-0.1289606392383575,-0.9386452436447144
1783201501876056600,4.123056640625,0.4620844275414943,0.3113127051852643,1.8511743948966264,-0.3848237097263336,-0.1525346636772155,-0.9094117283821106
1783201501885993700,4.13299365234375,0.576402296116948,0.3283144011296331,1.8148451904088256,-0.465632826089859,-0.1581680476665496,-0.875170111656189
1783201501895931000,4.142930908203125,0.5927163020581007,0.3949586643822491,1.795663520076871,-0.5394882559776306,-0.162000834941864,-0.8525495529174805
1783201501905867500,4.152867431640625,0.5669172594130039,0.3763165077544748,1.813537614941597,-0.6041732430458069,-0.2077707201242447,-0.8381117582321167
1783201501915804700,4.1628046875,0.5536392601668835,0.3452006540007889,1.8305284972310063,-0.6717764139175415,-0.3016311526298523,-0.8406935334205627
1783201501925741600,4.172741455078125,0.520534278422594,0.3564464167669415,1.8137421976029875,-0.7498123645782471,-0.4240728914737701,-0.8526995778083801
1783201501935678700,4.1826787109375,0.4423854553371668,0.40646863104254,1.7746306689202784,-0.8359665870666504,-0.5228838920593262,-0.8735674619674683
1783201501945616000,4.192615966796875,0.3501975855052471,0.4677572124809026,1.655506276845932,-0.9233012199401855,-0.5876449942588806,-0.889197587966919
1783201501955552500,4.202552490234375,0.2868897731989622,0.4875079148724675,1.5489561196625232,-1.0273590087890625,-0.6001391410827637,-0.8959963917732239
1783201501965489700,4.21248974609375,0.2117506533235311,0.4922856506682932,1.4304256018280983,-1.1396112442016602,-0.5559293627738953,-0.8986608386039734
1783201501975426600,4.222426513671875,0.2376467266023159,0.4303685620680451,1.3338912272244692,-1.2496474981307983,-0.5029553771018982,-0.8868223428726196
1783201501985363700,4.23236376953125,0.3617641046583652,0.3256749925367534,1.2125772161513566,-1.3483303785324097,-0.4852155745029449,-0.8582665920257568
1783201501995300900,4.24230078125,0.4667845680564642,0.2381109831131994,1.0819529404193162,-1.4472525119781494,-0.4958876967430115,-0.8282755613327026
1783201502005237500,4.252237548828125,0.5277648141980171,0.1979091749757528,0.9720756846398114,-1.5319421291351318,-0.5024465322494507,-0.7851834893226624
1783201502015174700,4.262174560546875,0.5129881008267403,0.1738346180357038,0.8173866427093743,-1.6022900342941284,-0.5050178170204163,-0.7502312660217285
1783201502025111600,4.272111572265625,0.4593523722290992,0.1323613286577165,0.6467074199646711,-1.6659451723098757,-0.5090197324752808,-0.7304889559745789
1783201502035048700,4.282048583984375,0.3481435755848884,0.1093479712083935,0.4903244335979222,-1.7185885906219482,-0.5161902904510498,-0.7289860248565674
1783201502044985900,4.29198583984375,0.1785118160665035,0.1785419189438223,0.3408499114453792,-1.7697558403015137,-0.5384582877159119,-0.735284686088562
1783201502054922500,4.301922607421875,0.0444856229364871,0.2824832088030874,0.2934311576664448,-1.854886531829834,-0.5677940249443054,-0.7620070576667786
1783201502064859600,4.311859619140625,-0.0268202023863792,0.3113069330316036,0.2652636323243379,-1.9908031225204468,-0.5731453895568848,-0.8124531507492065
1783201502074796800,4.321796875,-0.0701215839743614,0.3802282743707299,0.2535989134937524,-2.171337842941284,-0.4976375699043274,-0.8798947334289551
1783201502084733700,4.331733642578125,-0.0021077859342098,0.4867122344501316,0.1054763904720544,-2.3054916858673096,-0.3676081895828247,-0.9244651198387146
1783201502094670800,4.3416708984375,0.3676432258248329,0.6360963749054819,-0.7686872014701366,-2.2400829792022705,-0.3123378455638885,-0.9216672778129578
1783201502104607500,4.351607421875,1.0205202743351458,0.8572104843799024,-2.2027765865027904,-2.090749502182007,-0.2088434249162674,-0.8884126543998718
1783201502114544600,4.361544677734375,1.5562901158124207,0.9658199852459132,-2.54370014770627,-1.9431164264678955,-0.1636541783809662,-0.8113858103752136
1783201502124481800,4.371481689453125,1.98166189250648,0.946823608352989,-2.9684172598838803,-1.7927820682525637,-0.1445901989936828,-0.7139602303504944
1783201502134418700,4.381418701171875,2.232110817536712,0.997288963286206,-3.2301609013885257,-1.6479746103286743,-0.1136927306652069,-0.6144572496414185
1783201502144355800,4.39135595703125,2.252764898508787,1.1668787102937697,-3.4326240864068267,-1.499733805656433,-0.0392414070665836,-0.5299831032752991
1783201502154292500,4.40129248046875,2.1516297521114347,1.3283921914167702,-3.6070214528918254,-1.368306279182434,0.0656905248761177,-0.4595255851745605
1783201502164229600,4.411229736328125,2.0303397064357998,1.5504253154322505,-3.608087620818615,-1.2689168453216553,0.1692121177911758,-0.3920716941356659
1783201502174166800,4.421166748046875,1.963772600072622,1.7450433399081229,-3.678978435599804,-1.182321071624756,0.248681902885437,-0.3290258646011352
1783201502184103700,4.431103759765625,2.025778682130575,1.7715005542010067,-3.798240190318227,-1.0812761783599854,0.3353877663612366,-0.2632407248020172
1783201502194040800,4.441040771484375,2.126391850480437,1.6646511218100786,-3.9627755034804335,-0.9541026949882508,0.4272311627864837,-0.200450912117958
1783201502203977500,4.4509775390625,2.245946450665593,1.5257421250745653,-4.127532350438833,-0.785662829875946,0.5169546604156494,-0.1259969174861908
1783201502213914600,4.46091455078125,2.357328850311041,1.414987794199586,-4.213742314904928,-0.5794906616210938,0.5733051300048828,-0.0422890111804008
1783201502223851800,4.470851806640625,2.4067355630367997,1.3838425682209432,-4.177250613331794,-0.3601084947586059,0.5924583077430725,0.051612451672554
1783201502233788700,4.48078857421875,2.462467971652746,1.3753468348152935,-3.9460330429941415,-0.1347559094429016,0.5619344115257263,0.1609969735145568
1783201502243725800,4.490725830078125,2.467247607144713,1.3678180467456578,-3.889719619619846,0.1170923039317131,0.5424582362174988,0.2509178221225738
1783201502253662500,4.500662353515625,2.330170209750533,1.4562740365728737,-3.7794542413055896,0.3588843047618866,0.5678633451461792,0.3322931230068207
1783201502263599400,4.510599365234375,2.130916634428501,1.5177794756323095,-3.5640298679053783,0.5811600089073181,0.6024186015129089,0.4065415263175964
1783201502273536500,4.52053662109375,2.0552683959871527,1.4986056963458656,-3.3131519038081167,0.7676863670349121,0.6284622550010681,0.4753687083721161
1783201502283473400,4.530473388671875,2.043313754299283,1.4754033921957015,-2.9301433510690926,0.9034409523010254,0.6438769102096558,0.5531826019287109
1783201502293410600,4.54041064453125,1.9884949533969165,1.5630188395455478,-2.458480947843194,0.9792630672454834,0.6706228256225586,0.6469519138336182
1783201502303347700,4.55034765625,1.882374712063372,1.696776006475836,-2.0807009434074164,1.0370712280273438,0.7513118386268616,0.7738515734672546
1783201502313284400,4.560284423828125,1.7338336713686584,1.8136749775856733,-1.811375468471646,1.068940281867981,0.9230521321296692,0.8782359957695007
1783201502323221500,4.570221435546875,1.5747335349977016,1.9314220899574457,-1.554531289446354,1.066967248916626,1.1231343746185305,0.959879755973816
1783201502333158400,4.580158447265625,1.3802142947211862,1.8838018222570416,-1.2897183234989642,1.0661869049072266,1.247426152229309,1.0151108503341677
1783201502343095600,4.590095458984375,1.2481985646307467,1.6731065232053397,-1.0394324800759551,1.061543345451355,1.2753888368606567,1.0297199487686155
1783201502353032700,4.60003271484375,1.302367084930837,1.5404909275256096,-0.7743997338980436,1.0616971254348757,1.1686267852783203,1.0310593843460083
1783201502362969300,4.60996923828125,1.4723510188877582,1.3031469832621514,-0.5192763873159885,1.0969276428222656,1.2019189596176147,1.021589994430542
1783201502372906500,4.619906494140625,1.749243421946466,0.8466086455404758,-0.1304074181109666,1.0012576580047607,1.583369493484497,1.0067514181137085
1783201502382843400,4.629843505859375,1.6724021743282675,0.4241518795102834,0.3241553817540407,0.8959898352622986,1.7839020490646362,0.9925946593284608
1783201502392780500,4.639780517578125,0.8728612771719694,0.7533388256907463,0.3837351134479045,0.7991017699241638,1.6832867860794067,1.0022451877593994
1783201502402717700,4.6497177734375,0.5856909334659576,1.267955989024043,0.4710930789053439,0.75433349609375,1.5751025676727295,1.0274440050125122
1783201502412654300,4.659654296875,0.8334069264009595,1.1929917142588644,0.7591647553652524,0.7281978726387024,1.4585473537445068,1.1019959449768066
1783201502422591500,4.669591552734375,1.0658470242708922,0.8939365792308002,0.5696481456816196,0.7067080140113831,1.2726006507873535,1.2123345136642456
1783201502432528400,4.6795283203125,1.1655965615287422,0.7673905857883393,0.7439537422299385,0.7416830062866211,1.1154416799545288,1.3337782621383667
1783201502442465500,4.689465576171875,1.2523355183050036,0.6558440816223621,0.8686077113807201,0.7775826454162598,0.9008697867393494,1.4629011154174805
1783201502452402700,4.699402587890625,1.1382196020424364,0.735370403606072,0.7643991488873958,0.7723895907402039,0.7250308394432068,1.5570110082626345
1783201502462339300,4.70933935546875,1.095804647900164,0.8222625051174313,1.069669212907553,0.7269656658172607,0.6923461556434631,1.6166011095046997
1783201502472276500,4.7192763671875,1.0506029856488108,0.553933713068813,1.459786720868945,0.6821486353874207,0.6484788060188293,1.6822710037231443
1783201502482213400,4.72921337890625,0.9644272157132624,0.2986928775869309,1.659284626340866,0.6595317721366882,0.6186298131942749,1.7487260103225708
1783201502492150500,4.739150634765625,0.7923647219166159,0.3050667600004002,1.828959640479088,0.6652270555496216,0.5144039392471313,1.8101836442947388
1783201502502087700,4.749087646484375,0.4971621706634759,0.4164215044539421,1.8162573952943089,0.6907873153686523,0.3570569157600403,1.852449655532837
1783201502512024300,4.7590244140625,0.2379123918011784,0.449224434511736,1.945874539810419,0.6737286448478699,0.1960304081439972,1.87476909160614
1783201502521961500,4.76896142578125,0.0875914819523692,0.3776915224347263,2.2752578853458165,0.5900148153305054,0.1271077990531921,1.876136064529419
1783201502531898600,4.778898681640625,-0.046143911537528,0.3516439118560403,2.653595523664355,0.4405653774738312,0.1767000406980514,1.8719059228897093
1783201502541835500,4.78883544921875,-0.2468997081160545,0.4277794954229146,2.959915388998389,0.2334907501935959,0.3088346421718597,1.8847506046295168
1783201502551772700,4.798772705078125,-0.4982631176427006,0.6611078473694623,3.112162882995605,-0.0171398743987083,0.4912652671337127,1.89752209186554
1783201502561709300,4.808709228515625,-0.6661801821976899,0.8326490207057445,3.271204274916649,-0.3309909999370575,0.693920910358429,1.9007834196090696
1783201502571646500,4.818646484375,-0.6923924818187952,0.7994046304907649,3.527936225739121,-0.7084152698516846,0.7872036695480347,1.8751983642578125
1783201502581583600,4.82858349609375,-0.5943751751810312,0.8209628206957131,3.71421633771956,-1.1233972311019895,0.788741409778595,1.8315893411636357
1783201502591520500,4.8385205078125,-0.4645665997460484,0.651186465074867,3.914712022057176,-1.5892856121063232,0.770048975944519,1.8913931846618648
1783201502601457700,4.848457763671875,-0.5394122896328568,-0.0341560616998001,3.030153877350688,-1.9315447807312007,0.4877462089061737,1.8283239603042605
1783201502611394300,4.858394287109375,-0.8417159050628542,0.2894548013813793,1.4395108255594968,-1.9536999464035036,0.3992413580417633,1.7134448289871216
1783201502621331500,4.86833154296875,-0.8201296578072012,0.2478551822099834,1.6062228982388973,-1.7750258445739746,0.338293582201004,1.7132242918014526
1783201502631268600,4.8782685546875,-0.6861587019957601,-0.3191751821886748,1.3089017473965885,-1.6083213090896606,0.1298152953386306,1.800855040550232
1783201502641205500,4.88820556640625,-0.6273885331191122,-0.5712909444525838,1.1794330714404582,-1.480522632598877,-0.1574817299842834,1.93375825881958
1783201502651142700,4.898142578125,-0.6371290058888495,-0.7223911681108176,1.505230959704518,-1.4551182985305786,-0.4198086857795715,2.089237928390503
1783201502661079300,4.908079345703125,-0.6609978111237287,-0.8697501594141125,2.040501619488001,-1.5231468677520752,-0.628827691078186,2.297313928604126
1783201502671016400,4.918016357421875,-0.6070278821356594,-1.131271682600677,2.6308716506809,-1.756421446800232,-0.7581403851509094,2.5229294300079346
1783201502680953600,4.92795361328125,-0.4594155005931854,-1.224842531223595,3.397235377639532,-2.1169819831848145,-0.8060501217842102,2.732495069503784
1783201502690890500,4.937890380859375,-0.4308965314649045,-1.297999829632044,4.0852451143294575,-2.556663751602173,-0.8308044672012329,2.944359540939331
1783201502700827600,4.94782763671875,-0.5681463628165424,-1.28824328251034,4.142268147277832,-3.136523723602295,-0.7989439964294434,3.0645081996917725
1783201502710764300,4.957764404296875,-0.7022732398420571,-0.858137755292654,3.997242421227693,-3.730381727218628,-0.7624944448471069,3.0993635654449463
1783201502720701400,4.967701416015625,-1.1666717895448206,-0.4899579383730888,2.9729245081752538,-4.243875503540039,-1.0564289093017578,3.070889949798584
1783201502730638600,4.977638671875,-3.926371480190754,-0.0198041861444711,0.7161334228903055,-3.087282180786133,2.956516027450561,1.0959351062774658
1783201502740575500,4.987575439453125,-16.090592322564124,1.722252831429243,-6.952065455523133,-2.631429433822632,1.274610996246338,-0.7666118144989014
1783201502750512600,4.9975126953125,-8.004011380213498,1.3185761691927909,-11.390917087018488,-2.1807351112365723,0.8701445460319519,-1.3395861387252808
1783201502760449500,5.007449462890625,-1.929569301697612,1.0475058964163064,-3.3292736020475626,-1.8766391277313232,0.692083477973938,-1.3551396131515503
1783201502770386400,5.017386474609375,0.0389389485947787,0.415761944566667,-3.3926574021995064,-1.474230170249939,-0.4123130142688751,-1.307359218597412
1783201502780323600,5.027323486328125,0.165981712578237,-0.4058367628797888,-4.661206096419692,-1.0608164072036743,-1.1098332405090332,-1.2363537549972534
1783201502790260500,5.037260498046875,-0.0193427061125636,-0.3170253837436437,-3.495325164991617,-0.6032737493515015,-1.1027116775512695,-1.1210135221481323
1783201502800197600,5.04719775390625,-0.4538607890754937,0.1582473189339041,-4.001800522923469,-0.1257803738117218,-1.0531760454177856,-0.96709007024765
1783201502810134500,5.057134521484375,-0.3078057199776172,0.4179313975602388,-5.214132824403047,0.3850602209568023,-0.7523263096809387,-0.7328301668167114
1783201502820071400,5.067071533203125,0.2967185087740421,0.2991331687003374,-4.856523501336574,0.7744607329368591,-0.3688884079456329,-0.4296130836009979
1783201502830008600,5.077008544921875,0.4934478263154626,0.1139613102227449,-4.193743482971192,0.9665817022323608,-0.0999493896961212,-0.0959082394838333
1783201502839945500,5.086945556640625,0.6125745564773678,0.088149408096075,-3.530564820677042,0.9910391569137572,0.0207783635705709,0.2169396877288818
1783201502849882600,5.096882568359375,0.7776391542106866,0.2811716878131032,-2.96405438849926,0.8767905831336975,0.0740294530987739,0.5088067650794983
1783201502859819500,5.106819580078125,0.9446195224374532,0.784926973131299,-3.1697534866988657,0.5793383717536926,-0.0996488630771637,0.7706348896026611
1783201502869756400,5.11675634765625,1.1030389830678702,1.4445213471978902,-3.5480519620507955,0.3759426474571228,-0.3939974009990692,0.9980108141899108
1783201502879693600,5.126693603515625,0.9930664502203465,1.6820500003784893,-3.5645986077040432,0.4964498877525329,-0.8343034386634827,1.2355433702468872
1783201502889630500,5.13663037109375,1.196375438413024,1.7869114738225935,-4.2054578861624,0.8558056354522705,-1.80743145942688,1.3945119380950928
1783201502899567600,5.146567626953125,1.3968492031797766,2.252772205032408,-7.671408488109708,1.639479637145996,-1.3460090160369873,1.2960234880447388
1783201502909504500,5.15650439453125,0.8064441006734967,0.958676397101581,-3.0674522191315887,2.3924057483673096,-0.7471511960029602,0.9082749485969543
1783201502919441400,5.16644140625,-0.2518313192993402,0.4011749085485935,-2.3293097935289144,3.0374596118927,-0.7794209718704224,0.5123878121376038
1783201502929378600,5.176378662109375,-0.276839503827691,0.5157242477923631,-3.436424647733569,3.505453109741211,-1.0270236730575562,0.2164879143238067
1783201502939315500,5.1863154296875,0.1651826711550355,0.941777869270742,-4.037303797981143,3.963456153869629,-0.4163573384284973,0.1081028431653976
1783201502949252600,5.196252685546875,0.7574374931812285,0.8067407455325126,-2.1648872930914163,4.392483234405518,0.1118998974561691,0.0101245138794183
1783201502959189500,5.206189453125,0.5152233125329018,0.5796836558751761,-1.6995634452372788,4.669734001159668,0.169346421957016,-0.0350714586675167
1783201502969126400,5.21612646484375,0.599054857429862,0.374443699619919,-1.4235861111968755,4.627373695373535,0.2330945581197738,0.0308993868529796
1783201502979063600,5.2260634765625,0.9928332259863616,0.2458722647644579,-0.4732324290215969,4.455632209777832,0.5900402069091797,0.0680163875222206
1783201502989000400,5.23600048828125,1.320949912586808,0.1014827177260071,0.7510948461562394,4.241142749786377,0.9162799715995787,0.0604805424809455
1783201502998937600,5.2459375,1.4461343353524805,0.0194356450930237,1.5051578944683075,3.937934875488281,1.1869066953659058,0.0682609677314758
1783201503008874500,5.25587451171875,1.6369652425050734,0.1108783225808292,2.2246885585814717,3.5774483680725098,1.405166745185852,0.0548012293875217
1783201503018811400,5.265811279296875,1.831374008144438,0.322811492864415,2.8034201744288203,3.214583158493042,1.4989055395126345,0.0274702720344066
1783201503028748500,5.27574853515625,1.979126382679492,0.5626824713874607,3.250940654566884,2.833579540252685,1.56903874874115,0.0087386462837457
1783201503038685400,5.285685546875,2.0846561107739805,0.6596816139586269,3.687036654371023,2.4506635665893555,1.6469476222991943,0.039193756878376
1783201503048622600,5.29562255859375,2.23009889319241,0.5990923398960382,4.156292580977082,2.091212272644043,1.7617769241333008,0.133449986577034
1783201503058559500,5.3055595703125,2.3163889371573925,0.3114318745855242,4.404884479963779,1.7518587112426758,1.9684802293777464,0.3153963387012481
1783201503068496400,5.315496337890625,2.400170505432784,-0.2174730495583265,4.249051528695225,1.408923625946045,2.1495068073272705,0.5993306636810303
1783201503078433500,5.32543359375,2.618694598414004,-0.5565292825199664,3.8869676905632016,1.0332398414611816,2.1830549240112305,0.93879234790802
1783201503088370700,5.33537060546875,2.8312819948226213,-0.4637331445965915,3.654596858537197,0.6396891474723816,2.008389949798584,1.2876602411270142
1783201503098307600,5.3453076171875,2.840420994567871,-0.2392212093774229,3.4346745891958474,0.2750049531459808,1.7464550733566284,1.6402899026870728
1783201503108244500,5.355244384765625,2.7640193074107167,0.0332760274622589,3.4010020366966724,-0.1516702026128769,1.6277846097946167,1.9248102903366089
1783201503118182400,5.365182373046875,2.4564395051434635,0.487179559700936,3.327985900324583,-0.5714666843414307,1.5584633350372314,2.073009967803955
1783201503128119600,5.37511962890625,2.165408102095127,0.9132867379974572,3.0524317601323125,-0.91566801071167,1.4705075025558472,2.078740358352661
1783201503138056400,5.385056396484375,1.8606836892589929,1.329062053502351,2.781146967822313,-1.1601420640945437,1.4048097133636477,1.982804775238037
1783201503147993600,5.39499365234375,1.5775351484149691,1.682078641951084,2.510008305984736,-1.3433717489242554,1.4321784973144531,1.839342832565308
1783201503157930500,5.404930419921875,1.2766663880936802,1.7945931143663822,2.18608556394279,-1.4587700366973877,1.4852211475372314,1.7092514038085938
1783201503167867400,5.414867431640625,0.8316117135472595,1.5645745445549488,1.561041109731793,-1.4964439868927002,1.5279268026351929,1.651220679283142
1783201503177804500,5.424804443359375,0.4773782966546714,1.1399015637800096,0.7968038734078406,-1.4938348531723022,1.557145118713379,1.656250238418579
1783201503187741400,5.434741455078125,0.3265772020734846,0.8297716386385261,0.1918394996732473,-1.524422526359558,1.578718185424805,1.7001125812530518
1783201503197678600,5.4446787109375,0.3667748454924672,0.6498242368109524,-0.2139987245112657,-1.6240532398223877,1.5530579090118408,1.758759617805481
1783201503207615500,5.454615478515625,0.4792159604106098,0.4811566096169873,-0.7295470312148332,-1.7825413942337036,1.4507391452789309,1.8331260681152344
1783201503217552400,5.464552490234375,0.5891195927403867,0.3728599010271951,-1.2201350841850045,-1.9622722864151,1.2566698789596558,1.9140565395355225
1783201503227489500,5.474489501953125,0.6434347549695522,0.464037242109701,-1.5290969884604215,-2.115675210952759,1.0453535318374634,1.9792996644973757
1783201503237426400,5.484426513671875,0.6227823544979095,0.7135314236983656,-1.6309896752268076,-2.2060084342956543,0.9143266081809998,1.992114782333374
1783201503247363600,5.494363525390625,0.4846918345384299,0.9512868713721632,-1.6876520581692456,-2.2180182933807373,0.8940185904502869,1.9739887714385984
1783201503257300700,5.50430078125,0.1748292550962418,0.9504097232114525,-1.962607647946477,-2.167823553085327,0.9757246375083924,1.9698885679244995
1783201503267238000,5.51423779296875,-0.1548946475051343,0.730050158431381,-2.589202838730812,-2.077552795410156,1.016185641288757,2.000143051147461
1783201503277175000,5.524175048828125,-0.36889819432199,0.550600038601458,-3.339923590877652,-1.9317052364349363,0.8752912878990173,2.035353422164917
1783201503287112000,5.53411181640625,-0.4528951589137315,0.5175061627730727,-4.111356876185536,-1.7121349573135376,0.5361663103103638,2.077709197998047
1783201503297049000,5.544049072265625,-0.4582254140257835,0.4704474744781851,-4.794961655914784,-1.486459493637085,0.1003091484308242,2.1111645698547363
1783201503306986000,5.553986083984375,-0.5474222853481769,0.7767575490705668,-4.859006550323963,-1.3460794687271118,-0.3387270867824554,2.051793575286865
1783201503316923000,5.5639228515625,-0.6826192758232354,1.3436882524870335,-4.349685155311227,-1.299733281135559,-0.7200262546539307,1.862413763999939
1783201503326860000,5.573860107421875,-0.7900627285845577,1.7488607062391937,-3.587743920969962,-1.3312932252883911,-0.9717652201652528,1.5725302696228027
1783201503336797000,5.583796875,-0.7681003414928913,1.818418664981425,-2.777066420510411,-1.3777490854263306,-1.0625790357589722,1.2710117101669312
1783201503346734000,5.593734130859375,-0.5044257319256663,1.4375216975688934,-2.2144927432596684,-1.364735126495361,-1.094821572303772,1.0753138065338137
1783201503356671000,5.6036708984375,-0.2617298321750015,0.6020877953849733,-2.126653716287017,-1.2487094402313232,-1.2016688585281372,0.97663015127182
1783201503366608000,5.61360791015625,-0.1358279818549752,-0.2901137036815285,-2.1134055276572705,-1.108108401298523,-1.1439454555511477,1.031396508216858
1783201503376545000,5.623544921875,0.4135035711806267,-0.38167350474298,-1.8384698116242884,-0.9572885632514954,-0.9953107237815856,1.2091164588928225
1783201503386482000,5.63348193359375,0.6840805805474519,-0.2425146248996257,-1.712892297887802,-0.7200538516044617,-0.9001321792602539,1.365323185920715
1783201503396419000,5.643419189453125,0.5176238708686083,-0.4854726096525788,-1.8485627510935068,-0.4431660771369934,-0.7553749680519104,1.4481499195098877
1783201503406356200,5.653356201171875,0.3777493170365691,-0.2075140386670827,-1.7426397858977316,-0.1603737622499466,-0.5400018095970154,1.4433410167694092
1783201503416292900,5.66329296875,0.2845871953450143,0.195450675907731,-1.595878029835224,0.0978210419416427,-0.3330193161964416,1.3871257305145264
1783201503426230000,5.67322998046875,0.3292576733291149,0.4395096076399087,-1.500986746263504,0.2760571837425232,-0.2209228277206421,1.3060756921768188
1783201503436167000,5.6831669921875,0.4102227959442883,0.627248101735115,-1.3566659536123276,0.3667002618312835,-0.2078461647033691,1.2361980676651
1783201503446104000,5.69310400390625,0.4869129446540027,0.7288327454656363,-1.133375084620714,0.4044535756111145,-0.2177290767431259,1.1885193586349487
1783201503456041200,5.703041259765625,0.6460001484781503,0.6807394534260034,-0.9777806182831524,0.400006890296936,-0.2255883365869522,1.1865671873092651
1783201503465977900,5.712977783203125,0.8393637159135192,0.5969543780192732,-0.9678279640674592,0.3687924444675445,-0.2405390739440918,1.2277262210845947
1783201503475915000,5.7229150390625,1.094202035009116,0.4687190432503819,-0.9062743019521236,0.399431049823761,-0.2718064785003662,1.2699711322784424
1783201503485852000,5.732851806640625,1.28003776422292,0.2795518315263092,-0.8958914396256208,0.4584667682647705,-0.2736591696739197,1.3157131671905518
1783201503495789000,5.7427890625,1.3470635741390289,0.1268285367108881,-0.7886188133865595,0.5301396250724792,-0.2129721343517303,1.3518695831298828
1783201503505726200,5.752726318359375,1.3134279926493764,0.056174745555967,-0.7028297046810388,0.6090713143348694,-0.1454642564058303,1.3821213245391846
1783201503515662800,5.762662841796875,1.2698179835036396,-0.0175558226957917,-0.7733990324229002,0.7050250172615051,-0.1142314970493316,1.4086050987243652
1783201503525600000,5.77260009765625,1.2768293235704302,-0.1019265890359878,-0.8321125026762485,0.8313311338424683,-0.1242506429553031,1.4144134521484375
1783201503535537000,5.782536865234375,1.3056212644211946,-0.1942960990451276,-0.7790402531802654,0.9654799103736876,-0.1618651300668716,1.4300416707992554
1783201503545474000,5.79247412109375,1.3135495732024312,-0.205555305814743,-0.6413000079631805,1.066964864730835,-0.1906387507915496,1.4476089477539062
1783201503555411200,5.8024111328125,1.3155682195484637,-0.043612201102823,-0.3444301080197096,1.1086459159851074,-0.2149949520826339,1.4641320705413818
1783201503565347800,5.812347900390625,1.3055746488004922,0.1586360259905457,-0.0052864159703254,1.1024844646453855,-0.2632633149623871,1.486397624015808
1783201503575286000,5.8222861328125,1.2994292779132723,0.2406571604646742,0.3040864071935415,1.0750216245651243,-0.3471132218837738,1.5107216835021973
1783201503585223000,5.832222900390625,1.2925132149145009,0.2508753337487578,0.5911486143499612,1.0395654439926147,-0.4343286752700805,1.557164192199707
1783201503595160000,5.84216015625,1.254811553029716,0.2844984941482544,0.8606459387212991,1.025776982307434,-0.5144214034080505,1.59452223777771
1783201503605097000,5.852096923828125,1.1237525391422212,0.1914223702397197,1.1155991894334554,1.0517224073410034,-0.5571591854095459,1.5826528072357178
1783201503615034000,5.8620341796875,0.9067619393385946,0.0717920014046132,1.352245214560628,1.1151474714279177,-0.5306247472763062,1.5464011430740356
1783201503624971000,5.871970947265625,0.7571500545419753,0.1049235788948834,1.62207045571208,1.181014895439148,-0.4381252229213714,1.511317253112793
1783201503634908000,5.881907958984375,0.5526896312918513,0.2213747331719845,1.9178689270317557,1.2239711284637451,-0.3397049009799957,1.4672906398773191
1783201503644845000,5.891844970703125,0.3346994259916245,0.2848343019738793,2.176954747503996,1.2432445287704468,-0.2688379287719726,1.4064894914627075
1783201503654782000,5.901781982421875,0.0977788217067718,0.2304306577436626,2.3375749330490825,1.245386004447937,-0.2161028385162353,1.3376950025558472
1783201503664719000,5.911718994140625,-0.1007835564807057,0.0755395173698663,2.346737898191809,1.2325108051300049,-0.2040779441595077,1.2611933946609497
1783201503674656000,5.921656005859375,-0.1738951160512864,-0.0828265143065713,2.373805937859416,1.2134180068969729,-0.2529661059379577,1.1786012649536133
1783201503684593000,5.931593017578125,-0.2375825022596865,-0.245103947273083,2.4974995375454423,1.1783300638198853,-0.2964541912078857,1.093446969985962
1783201503694530000,5.941530029296875,-0.1593139252521097,-0.4091179765075445,2.695099500441551,1.1149015426635742,-0.3134185373783111,1.0423345565795898
1783201503704467000,5.951467041015625,0.0306866685561835,-0.5948545561958104,2.9848686284691093,0.9937819242477416,-0.2968723475933075,1.0415366888046265
1783201503714404000,5.961404052734375,0.3162385442148894,-0.7431101310126483,3.4591783313333986,0.815619945526123,-0.2631426155567169,1.0993270874023438
1783201503724341000,5.971341064453125,0.5454264353558421,-0.8701504107780754,3.906640359282493,0.6079556941986084,-0.2213423401117324,1.1913549900054932
1783201503734278000,5.98127783203125,0.7157626898817717,-0.9874013371307402,4.272154171863198,0.3842962384223938,-0.1591705679893493,1.2975306510925293
1783201503744215000,5.991215087890625,0.8943835192807018,-1.012723482979089,4.468973798036575,0.1467700600624084,-0.0356847904622554,1.428561449050903
1783201503754152000,6.00115185546875,1.158171526094526,-0.9363414503704756,4.500739640131592,-0.1116148829460144,0.1453132182359695,1.596755027770996
1783201503764089000,6.011089111328125,1.3676876983642576,-0.670717825627327,4.2438527910083526,-0.3534041941165924,0.2856927812099457,1.7839055061340332
1783201503774026000,6.02102587890625,1.2783619399651884,-0.2372103079464286,3.66872767522037,-0.5570284128189087,0.3351798951625824,1.9224900007247925
1783201503783963000,6.030962890625,0.9667714407518504,0.2365778917944058,2.9126456883013248,-0.7030161619186401,0.3822895586490631,2.004110097885132
1783201503793900000,6.040900146484375,0.8412852585606276,0.7442372353464365,2.1128683520406484,-0.8016865253448486,0.490855723619461,2.072082757949829
1783201503803837200,6.050837158203125,0.9436821685221044,1.2531450811222196,1.2308072848469018,-0.8711645603179932,0.5954787731170654,2.149565458297729
1783201503813774000,6.060774169921875,0.9985964656881988,1.8140125389769672,0.4335100749641656,-0.9472633004188538,0.6141653656959534,2.2166972160339355
1783201503823711000,6.0707109375,0.8836712058041244,2.287716238772124,-0.2171773545473813,-0.997666835784912,0.5301997065544128,2.251086950302124
1783201503833647900,6.08064794921875,0.5745229121111333,2.621554956281185,-0.8180325393974781,-0.9672569632530212,0.4717110991477966,2.234248161315918
1783201503843585000,6.0905849609375,0.2710102862175554,2.9040979324474927,-1.425168411952257,-0.8174899220466614,0.5412855744361877,2.1585850715637207
1783201503853522200,6.100522216796875,0.0511516566969454,2.919752305436134,-2.174215093407035,-0.5504201650619507,0.6764851808547974,2.0466058254241943
1783201503863459000,6.110458984375,-0.035225188768655,2.8154437896996733,-2.864031587257981,-0.2583100497722626,0.829520583152771,1.988953113555908
1783201503873396000,6.12039599609375,0.0735897715415805,3.083633246342837,-3.144620214486122,-0.0414080917835235,0.9570820331573486,1.9087978601455688
1783201503883332900,6.130332763671875,0.0381118501208722,3.107684860798716,-3.0843910789728164,0.0292034558951854,0.9457178115844728,1.7411658763885498
1783201503893270000,6.14027001953125,-0.0889732916995883,2.92202463428229,-3.188952692687512,-0.0248523242771625,0.7027725577354431,1.5517433881759644
1783201503903208000,6.1502080078125,0.0606716185837984,2.613947403886914,-3.449410386034846,-0.1273106783628463,0.3056648075580597,1.4068058729171753
1783201503913145000,6.16014501953125,0.4226141485489905,2.288766040086001,-3.5010014570623635,-0.2511931955814361,-0.0081924777477979,1.3350036144256592
1783201503923082200,6.170082275390625,0.8434218321979046,2.0809939350046216,-3.0859722106844183,-0.4035746455192566,-0.1552583873271942,1.3186665773391724
1783201503933019000,6.180018798828125,1.1778374728120862,1.9637424971953032,-2.630942377829552,-0.5088320970535278,-0.2680142223834991,1.3174923658370972
1783201503942956000,6.1899560546875,1.2561433861553668,1.7405827072374522,-2.4369477459490296,-0.4856990873813629,-0.3409520983695984,1.3240597248077393
1783201503952893000,6.199892822265625,1.272440002570301,1.599849271553755,-2.3523913939088583,-0.3307907283306122,-0.2881911695003509,1.3414355516433716
1783201503962830000,6.209830078125,1.277626319167018,1.5728163031995297,-2.16803260537982,-0.0930365696549415,-0.1452388614416122,1.3410996198654177
1783201503972767200,6.219767333984375,1.220880787985772,1.5502059735931455,-1.9697809005767104,0.1950202584266662,0.0298019219189882,1.3150866031646729
1783201503982703900,6.229703857421875,1.2114188398964705,1.4801628616824745,-1.8219401171058416,0.4778431057929992,0.177120566368103,1.2563107013702393
1783201503992641000,6.23964111328125,1.233488779015839,1.3562531350277365,-1.6701374442666768,0.7282090187072754,0.2391362637281417,1.194526195526123
1783201504002578000,6.249577880859375,1.4044495951808988,1.169896085353568,-1.6314000095933674,0.9369333982467652,0.1593875288963318,1.176944136619568
1783201504012515000,6.25951513671875,1.8647323801279068,0.8180330508541316,-1.6686574348419905,1.0943893194198608,-0.0620151683688163,1.2196029424667358
1783201504022452200,6.2694521484375,2.328960395569354,0.5983244607960805,-1.2350175960183143,1.2064992189407349,-0.3657781779766083,1.3216640949249268
1783201504032388900,6.279388916015625,2.602982650019228,0.6927405646041035,-0.3034615532934665,1.2569481134414673,-0.6393702626228333,1.4348905086517334
1783201504042326000,6.289325927734375,2.6094381097689268,1.0506742242541165,1.06378073939085,1.2850008010864258,-0.8361667990684509,1.534997582435608
1783201504052263000,6.299262939453125,2.3463887924931943,1.417717803685367,2.1538719780802724,1.3395237922668457,-0.924995481967926,1.6193846464157104
1783201504062200000,6.309199951171875,2.1582655368641017,1.8086504274219275,3.035784576714039,1.44560968875885,-0.918907105922699,1.70701801776886
1783201504072137200,6.31913720703125,1.9760338234916328,2.0221013087920845,3.63946592490077,1.6060079336166382,-0.9488471746444702,1.8861024379730225
1783201504082073900,6.329073974609375,1.7549691061168908,1.9206975745864208,4.034578172409534,1.8713514804840088,-0.7618524432182312,2.0972554683685303
1783201504092011000,6.339010986328125,1.4033460178531705,2.274974392229318,4.713241404083371,2.173227071762085,-0.3043287992477417,2.284222364425659
1783201504101948000,6.348947998046875,0.6696993692997842,2.90963423152566,5.195047015661001,2.3916685581207275,0.3291144073009491,2.43698525428772
1783201504111885000,6.358885009765625,-0.1837145723413676,3.3199107304185627,5.221598922500014,2.487654209136963,0.9406904578208924,2.5554134845733643
1783201504121822200,6.368822265625,-0.8250674064703285,3.418354445774853,4.951681911411881,2.466511011123657,1.44188129901886,2.575083017349243
1783201504131758800,6.3787587890625,-1.0947511202592402,3.4065327828168868,4.738488658064604,2.310076236724853,1.7623149156570437,2.4964542388916016
1783201504141696000,6.388696044921875,-1.303114980688691,3.523364972300828,4.488141439843178,2.0045511722564697,1.8497288227081297,2.356763362884521
1783201504151633200,6.398633056640625,-1.644639576525241,3.716093822029233,4.110809763696789,1.6317685842514038,1.722617506980896,2.158987522125244
1783201504161570000,6.408570068359375,-2.0124097897306084,3.999610903924703,3.608146073007584,1.2157137393951416,1.4046730995178225,1.876626968383789
1783201504171508000,6.418508056640625,-2.461905077072978,4.127012418217957,3.0570535747140646,0.8005306124687195,0.8882648348808289,1.5397684574127195
1783201504181445000,6.428445068359375,-2.9282860327646136,4.064804968369007,2.612117850372195,0.4301937520503998,0.3165287971496582,1.1583096981048584
1783201504191382000,6.438382080078125,-3.1702444850862026,4.23304030509293,2.585305246770382,0.1040201932191848,-0.1694890111684799,0.7416983246803284
1783201504201319000,6.44831884765625,-3.3628064538151023,4.261231795832514,2.619834123837948,-0.2373982518911361,-0.4580826759338379,0.3356784582138061
1783201504211256000,6.458256103515625,-3.5640479880839586,3.637599546507001,2.700394684240222,-0.5757315754890442,-0.1895787864923477,0.0443297177553176
1783201504221193000,6.46819287109375,-3.5955958035141227,2.534584821097553,2.958114477056265,-0.9489327073097228,0.6078125834465027,-0.1173118352890014
1783201504231130000,6.478130126953125,-3.5581562996968623,1.1611553642109036,2.60382757641077,-1.393038034439087,1.4180185794830322,-0.1951432526111602
1783201504241067000,6.48806689453125,-3.4042537319689985,-0.119544955573976,1.4502987615555525,-1.9341726303100584,2.0199966430664062,-0.2677289545536041
1783201504251004000,6.49800390625,-2.58988760612458,-0.4818208091467618,-0.2821165674477815,-2.475538492202759,2.2771859169006348,-0.3453723490238189
1783201504260940800,6.50794091796875,-1.2706770845510065,-0.1521202143557369,-2.443855041119456,-2.9053714275360107,2.097503185272217,-0.4044398963451385
1783201504270878000,6.5178779296875,0.1477959214158356,0.2848490611515939,-4.744594573724269,-3.1573500633239746,1.6091996431350708,-0.3988816142082214
1783201504280814600,6.527814697265625,1.504126067202538,0.6089876379013062,-6.479477169623971,-3.2646608352661133,1.0192887783050537,-0.299670547246933
1783201504290751700,6.537751708984375,2.5467817471086978,0.8304735032975673,-7.624251600137352,-3.0560224056243896,0.2164631485939026,-0.1434431225061416
1783201504300688600,6.547688720703125,3.020866993567348,1.1909035828731953,-8.404109014919399,-2.589182615280152,-0.5694923996925354,0.067352645099163
1783201504310625800,6.557625732421875,3.102899964609742,1.909531599058211,-8.286246021082997,-1.9231204986572263,-1.1581112146377563,0.2081784754991531
1783201504320563000,6.56756298828125,2.373137098687142,2.270273667192459,-7.721296262350678,-1.1271954774856567,-1.4306491613388062,0.2190599739551544
1783201504330499600,6.57749951171875,1.4820760018274186,2.3937749591767785,-6.961205039790272,-0.3496533930301666,-1.3521833419799805,0.2073681652545929
1783201504340436700,6.587436767578125,0.6212327869683504,2.5954817728698254,-6.021518882101774,0.3341370820999145,-1.05436909198761,0.186235710978508
1783201504350373600,6.59737353515625,-0.2408053367637097,2.853729973474145,-5.158292279237508,0.9033952355384828,-0.677872359752655,0.1470898985862732
1783201504360310800,6.607310791015625,-0.95935882640779,3.092622900745273,-4.4895741029948,1.3299027681350708,-0.299205482006073,0.0450242981314659
1783201504370248000,6.617248046875,-1.4532321846589444,3.315368410813808,-4.056000315144658,1.5973693132400513,-0.0446038134396076,-0.1091532856225967
1783201504380184600,6.6271845703125,-1.6857732586853205,3.516545063152909,-3.866044144999981,1.725130558013916,0.0373549424111843,-0.2949649393558502
1783201504390121700,6.637121826171875,-1.7245009026169775,3.611559096321464,-3.743261230418086,1.711310863494873,-0.0114408247172832,-0.4910897314548492
1783201504400058600,6.64705859375,-1.5554939969986676,3.568543253676593,-3.634007659494877,1.600043535232544,-0.1936987936496734,-0.6587486863136292
1783201504409995800,6.656995849609375,-1.1959078209012746,3.467465682685375,-3.5692660149931905,1.4374428987503052,-0.4851024150848388,-0.7860336899757385
1783201504419933000,6.666932861328125,-0.774466077132523,3.426293714341521,-3.4590088199853897,1.2834078073501587,-0.8404521942138672,-0.8806014060974121
1783201504429869600,6.67686962890625,-0.478486842418462,3.4154461571127173,-3.2700895916730164,1.1608881950378418,-1.1903064250946045,-0.9505868554115297
1783201504439807700,6.686807861328125,-0.3093587946385145,3.379790029580891,-2.960871082288026,1.093704104423523,-1.518405199050903,-1.0073182582855225
1783201504449744600,6.69674462890625,-0.2498733170993625,3.325806802719831,-2.57730840279758,1.0738614797592163,-1.8079155683517456,-1.0794897079467771
1783201504459681800,6.706681884765625,-0.3477721849892288,3.2531922328859566,-2.087555047085881,1.0726031064987185,-2.0048704147338867,-1.1872756481170654
1783201504469618700,6.71661865234375,-0.5505136024270206,3.122420657637716,-1.491031169438362,1.065982460975647,-2.1370348930358887,-1.3211886882781982
1783201504479555800,6.726555908203125,-0.7777014788571744,2.8372207372218368,-0.910628405508399,1.0558679103851318,-2.207145929336548,-1.4698939323425293
1783201504489492700,6.73649267578125,-0.9556910976804792,2.4335196711964904,-0.4131979392975568,1.058301568031311,-2.224618434906006,-1.6025813817977903
1783201504499429600,6.7464296875,-1.0042616518430412,2.023452577270567,0.0206172560930252,1.0718930959701538,-2.2051539421081543,-1.7113285064697266
1783201504509366800,6.75636669921875,-0.9602901889737696,1.6907710669726133,0.3856342250674963,1.0842760801315308,-2.151001453399658,-1.8057622909545896
1783201504519303700,6.7663037109375,-0.8470177377980201,1.4709902519285678,0.8838380137383938,1.08107328414917,-2.085153579711914,-1.8557496070861816
1783201504529240800,6.77624072265625,-0.7382215552534908,1.2896490576550363,1.5011533350020647,1.0532610416412354,-1.964806318283081,-1.8543287515640257
1783201504539177700,6.786177734375,-0.5310379906497895,1.126569788520038,2.177960125154257,1.010140299797058,-1.7631088495254517,-1.848716378211975
1783201504549114600,6.796114501953125,-0.2639111948020756,0.9782754160627722,2.7461434589803217,0.9630175232887268,-1.5086209774017334,-1.8602137565612795
1783201504559051800,6.8060517578125,-0.0347319253589957,0.9307692762613295,3.1696547024995088,0.9222881197929382,-1.225378394126892,-1.8894003629684448
1783201504568989000,6.815989013671875,0.2052225667290389,0.9755515440568328,3.466595329591632,0.9039426445961,-0.9203689694404602,-1.925108551979065
1783201504578925800,6.82592578125,0.4191295213036239,0.9781871532574296,3.657448156315088,0.8934605121612549,-0.6256833672523499,-1.9587839841842647
1783201504588862700,6.83586279296875,0.538268672555685,0.8461053721934556,3.69489438213408,0.9095438718795776,-0.3896750807762146,-1.9746832847595213
1783201504598799600,6.845799560546875,0.7361852271202951,0.6001543431043624,3.513238422822952,0.9570887684822084,-0.2098816037178039,-1.9572124481201167
1783201504608736800,6.85573681640625,1.0653426549453289,0.354175841486454,3.204417388322949,1.0344983339309692,-0.0686251372098922,-1.9046642780303955
1783201504618674000,6.865673828125,1.3203481473013758,0.1590451913133263,2.9289889203369617,1.1205627918243408,0.0681488662958145,-1.8400580883026123
1783201504628610800,6.87561083984375,1.4561381352335214,0.0673088646411895,2.7728952723056075,1.1817364692687988,0.1903610676527023,-1.7732495069503784
1783201504638547700,6.885547607421875,1.5184826554656028,0.0376122300356626,2.692151172029972,1.218908190727234,0.3102309107780456,-1.70875346660614
1783201504648484600,6.895484619140625,1.60484240366593,0.0557096122622489,2.609704359489679,1.2301645278930664,0.4187994599342346,-1.6413426399230957
1783201504658421800,6.905421875,1.6659925995469091,0.1093733979105949,2.5021453175246715,1.1929525136947632,0.5492540001869202,-1.5771710872650146
1783201504668359000,6.91535888671875,1.6904175773598251,0.1086295938059687,2.2827438571870324,1.1064271926879885,0.6815841197967529,-1.5257205963134766
1783201504678296800,6.925296875,1.697082442076504,0.0531952913537621,1.7482535341262817,0.9933589100837708,0.7627148032188416,-1.4982290267944336
1783201504688233700,6.935233642578125,1.6503934638768434,-0.0389127912402153,1.0527414589822293,0.863185703754425,0.794726550579071,-1.4972755908966064
1783201504698170600,6.945170654296875,1.38819857147336,-0.202254218442738,0.1845692164093255,0.7389501333236694,0.7834731936454773,-1.5304421186447144
1783201504708107800,6.955107666015625,1.0748433276098222,-0.3938473421394824,-0.7314362059623003,0.633333146572113,0.7445076704025269,-1.5694659948349
1783201504718044700,6.965044677734375,0.8852265454873443,-0.4725052837908268,-1.518075828230381,0.5677273273468018,0.7011680006980896,-1.6074175834655762
1783201504727981800,6.97498193359375,0.8615636380881071,-0.4670177922904491,-2.198583226466179,0.5593269467353821,0.6405121088027954,-1.6325945854187012
1783201504737919000,6.9849189453125,1.0435117852788418,-0.455979096403718,-2.8746289691179987,0.6118138432502747,0.5047503113746643,-1.6240912675857544
1783201504747855600,6.994855712890625,1.3105679270431398,-0.4798164835870265,-3.46691506306529,0.6862664818763733,0.2998133897781372,-1.583768606185913
1783201504757792800,7.004792724609375,1.4490633745417,-0.5911380929559469,-3.7962908098161217,0.7652053236961365,0.0530754812061786,-1.5284007787704468
1783201504767729700,7.014729736328125,1.480302708544582,-0.8216773256406188,-3.892297945675254,0.8386281728744507,-0.1967876106500625,-1.440206527709961
1783201504777666800,7.024666748046875,1.4955135755494235,-1.0071958055987953,-3.710816173887253,0.8952342867851257,-0.421764463186264,-1.3182986974716189
1783201504787604000,7.03460400390625,1.5351779158093035,-0.9367954046830534,-3.296949541547894,0.9049521684646606,-0.615986168384552,-1.197241187095642
1783201504797540600,7.04454052734375,1.4435063249364497,-0.6383928883448243,-2.794873295357823,0.8926727175712585,-0.8515214920043945,-1.070631742477417
1783201504807477800,7.054477783203125,1.232846973980963,-0.4480553176671266,-2.481379008349776,0.8671785593032837,-1.1035842895507812,-0.9154586791992188
1783201504817414700,7.06441455078125,1.0948153446018696,-0.2572071671187877,-2.0652549524724484,0.8219588994979858,-1.2729065418243408,-0.7749904990196228
1783201504827351800,7.074351806640625,0.870497178389132,-0.0245095873564481,-1.5289660555571316,0.7636731863021851,-1.3870344161987305,-0.6625715494155884
1783201504837289000,7.0842890625,0.5719669440180063,0.2560579970836639,-1.0503408275812864,0.7071978449821472,-1.4824602603912354,-0.5865443348884583
1783201504847225600,7.0942255859375,0.3380268168486655,0.5857686748772859,-0.6833581114917994,0.6592612266540527,-1.549584984779358,-0.5349144339561462
1783201504857162800,7.104162841796875,0.1490374459095299,0.917355667936802,-0.3085878102660179,0.6065089106559753,-1.5690728425979614,-0.5062487125396729
1783201504867099600,7.114099609375,-0.101753716687113,1.1633464445143935,0.0211287127465009,0.5567978024482727,-1.5335278511047363,-0.4900303483009338
1783201504877036800,7.124036865234375,-0.3275723505906761,1.3620797953546049,0.2519189975827932,0.5093507170677185,-1.47271466255188,-0.5025233030319214
1783201504886974000,7.133973876953125,-0.5359500203497708,1.5707237148344515,0.3574894960790872,0.4532019793987274,-1.4159895181655884,-0.538787841796875
1783201504896912000,7.143911865234375,-0.7532077466569841,1.7247627684235571,0.4343570471823215,0.4065763652324676,-1.3679726123809814,-0.5982216000556946
1783201504906848800,7.153848876953125,-0.953424760183692,1.8034750706106424,0.492244003483653,0.3707227706909179,-1.3411308526992798,-0.6726338267326355
1783201504916785700,7.16378564453125,-1.0381412712216376,1.8284148660779,0.5519599287778139,0.3349865078926086,-1.3351844549179075,-0.7368723154067993
1783201504926722800,7.173722900390625,-0.9917927770227192,1.837751434221864,0.6643009443223477,0.2989185154438019,-1.3278180360794067,-0.802790105342865
1783201504936659700,7.18365966796875,-0.8728304436422883,1.8884616307616235,0.878563288205862,0.2497733682394027,-1.3175050020217896,-0.8807103633880615
1783201504946596900,7.193596923828125,-0.7224350072525442,1.8922043244212865,1.120754672500491,0.188019186258316,-1.3013156652450562,-0.9724775552749634
1783201504956533800,7.20353369140625,-0.5544285108484327,1.8124141638696192,1.2889514307796954,0.1213918626308441,-1.298601508140564,-1.0723943710327148
1783201504966470700,7.213470703125,-0.349923444738984,1.705555379128456,1.3876853612542153,0.0748853534460067,-1.3159551620483398,-1.1719214916229248
1783201504976407800,7.22340771484375,-0.049083179859817,1.56054368160367,1.3642273287773132,0.0548657178878784,-1.3434834480285645,-1.2604143619537354
1783201504986344700,7.2333447265625,0.4141539248481393,1.316721481236815,1.1847773550778626,0.0659862756729126,-1.3730295896530151,-1.3159029483795166
1783201504996281900,7.24328173828125,0.9439074286453424,1.0362199477702378,1.0360878458231686,0.0842525735497474,-1.3624213933944702,-1.3340635299682615
1783201505006218800,7.25321875,1.363363989946246,0.7657143231391906,0.956819078797102,0.1004834771156311,-1.318302869796753,-1.3326847553253174
1783201505016155600,7.26315576171875,1.6121099104508756,0.5499836602687835,0.8436562254756689,0.1059634014964103,-1.2366520166397097,-1.327497124671936
1783201505026092800,7.2730927734375,1.646714483103156,0.3493085277110338,0.766899733531475,0.1041407361626625,-1.1052372455596924,-1.327903151512146
1783201505036029700,7.28302978515625,1.4922662641912698,0.1203074643790721,0.6706371616065502,0.0955870002508163,-0.9517743587493896,-1.3323215246200562
1783201505045966800,7.292966796875,1.233095103523135,-0.1157692364275455,0.5353583380669356,0.1021333187818527,-0.7908291220664978,-1.331128716468811
1783201505055903700,7.30290380859375,1.015520274090767,-0.2889484592944383,0.3492003911614418,0.1217155456542968,-0.6164762377738953,-1.3384238481521606
1783201505065840600,7.312840576171875,0.9298612215057016,-0.3448503792583942,0.128373866456747,0.1730101555585861,-0.4599508047103882,-1.3375202417373655
1783201505075777800,7.32277783203125,0.940272433143854,-0.4137789540559053,-0.276632583078742,0.2491353899240493,-0.3422222137451172,-1.3417954444885254
1783201505085715000,7.33271484375,0.9478647879689932,-0.5344505755722523,-0.6559042873769998,0.3314667344093323,-0.2537387013435364,-1.368507742881775
1783201505095651800,7.34265185546875,0.9442924824401736,-0.646528556266427,-0.9700058926284312,0.4139570295810699,-0.2352667152881622,-1.3916144371032717
1783201505105588700,7.352588623046875,1.0979022047013045,-0.7223252632677555,-1.2151438517689703,0.4882517755031585,-0.2613236010074615,-1.3835890293121338
1783201505115526700,7.362526611328125,1.3703984186276792,-0.7990192113697528,-1.3066285417675971,0.5611335039138794,-0.3124281167984009,-1.3369516134262085
1783201505125463800,7.3724638671875,1.557088572713733,-0.8910352317661047,-1.311201841032505,0.6314228773117065,-0.3856999278068542,-1.2610102891921997
1783201505135400700,7.382400634765625,1.6656351644113658,-0.9416735321134329,-1.1912684706628325,0.6943403482437134,-0.4539144337177276,-1.1663013696670532
1783201505145337900,7.392337890625,1.7463666974663734,-0.8656868554979562,-1.0142191283643245,0.750323474407196,-0.4979641437530517,-1.0545083284378052
1783201505155274800,7.402274658203125,1.8429738450452684,-0.709028559321165,-0.8408838381528854,0.8056651949882507,-0.531704306602478,-0.9327119588851928
1783201505165211600,7.412211669921875,1.81348530023247,-0.5000608147144318,-0.5869301198720932,0.8200228810310364,-0.5260006189346313,-0.8232962489128113
1783201505175148800,7.422148681640625,1.605242362768948,-0.304109788069129,-0.2266460246384143,0.784561038017273,-0.4992286264896393,-0.7483159899711609
1783201505185085700,7.432085693359375,1.2737035927653313,-0.2150917804449796,0.0503203204393386,0.7063006162643433,-0.4757669866085052,-0.7042241096496582
1783201505195022800,7.44202294921875,0.957426981562376,-0.2489472882956266,0.2102396642386913,0.6033468842506409,-0.4557346105575561,-0.6798391342163086
1783201505204959700,7.451959716796875,0.7270335870891809,-0.304562792533636,0.2763777315348386,0.5070930123329163,-0.4357238709926605,-0.6600227952003479
1783201505214896600,7.461896728515625,0.5659095436751842,-0.3707365156650543,0.2749059054166078,0.4312061369419098,-0.4166569113731384,-0.6367957592010498
1783201505224833800,7.471833740234375,0.457185549584031,-0.406903223067522,0.2843780826389789,0.373393177986145,-0.3852196335792541,-0.6130545139312744
1783201505234770700,7.481770751953125,0.461840681913495,-0.3509820138812065,0.216256732571125,0.3524965643882751,-0.3650570511817932,-0.574948787689209
1783201505244707800,7.491707763671875,0.5623369458854198,-0.2332020221531391,0.0058580783784389,0.3650150299072265,-0.3540659248828888,-0.532586395740509
1783201505254645000,7.50164501953125,0.6153934132903814,-0.0849544114470481,-0.10671557687819,0.3880264461040497,-0.3362815082073211,-0.4938828647136688
1783201505264581000,7.5115810546875,0.5311962499514222,0.0192471367835998,-0.1443453425705432,0.4082182645797729,-0.3258040845394134,-0.4729922115802765
1783201505274518000,7.52151806640625,0.4112423847829923,0.0485439584165811,-0.1424286952942609,0.4412576258182525,-0.327256292104721,-0.4699923694133758
1783201505284455200,7.531455078125,0.3902136618122458,0.0865595085561275,-0.246786895391345,0.485563576221466,-0.354119598865509,-0.4615221917629242
1783201505294392000,7.54139208984375,0.4119403404518961,0.1827303105443715,-0.3203659263432025,0.5378575921058655,-0.3814625144004822,-0.4563164412975311
1783201505304329200,7.5513291015625,0.2917217234000563,0.3018015111267566,-0.2743570393621921,0.591549277305603,-0.408489853143692,-0.4662409722805023
1783201505314266000,7.56126611328125,0.1026007985031232,0.4321224199980497,-0.1471855344325304,0.628980815410614,-0.4279950857162475,-0.4900353550910949
1783201505324203000,7.571203125,-0.017236746809259,0.6668184801012277,0.1000987890869379,0.635032057762146,-0.422763854265213,-0.5238140821456909
1783201505334141000,7.581140869140625,-0.0862561416953802,0.908246478807926,0.4293517862409353,0.6121354699134827,-0.394051730632782,-0.5765126347541809
1783201505344078000,7.591078125,-0.0981736662432551,1.0399860223054884,0.681980393397808,0.5719771385192871,-0.3677913844585418,-0.6275103092193604
1783201505354015200,7.60101513671875,-0.0694511373668909,1.0050912345349787,0.7261597268640995,0.5220907330513,-0.3620313107967376,-0.6767996549606323
1783201505363952000,7.6109521484375,-0.0815130388215184,0.883227772885561,0.7539496510654687,0.4754305183887481,-0.3615918755531311,-0.7255980968475342
1783201505373889300,7.62088916015625,-0.0574781563047319,0.7691431285440922,0.8621732944190502,0.4265764951705932,-0.3394691944122314,-0.7656732201576233
1783201505383826000,7.630825927734375,0.0660442515328526,0.7154775893300771,0.9878092603445052,0.3785431981086731,-0.2981047034263611,-0.7997102737426758
1783201505393763000,7.64076318359375,0.1747474950969219,0.7060685404717921,1.120008822569251,0.3207291066646576,-0.2419500648975372,-0.8250539898872375
1783201505403700200,7.6507001953125,0.2630903799384832,0.7077648229956627,1.233331834888458,0.240614578127861,-0.1659993678331375,-0.8279725313186646
1783201505413637000,7.66063720703125,0.2980678775563836,0.7314063953459262,1.2879355317354202,0.1387881338596344,-0.0834278315305709,-0.826422393321991
1783201505423574300,7.67057421875,0.2044441297024488,0.735681588447094,1.245161973413825,0.0197498966008424,-0.0232539735734462,-0.8267819285392761
1783201505433511000,7.680510986328125,0.0325897256985306,0.6571230155169964,1.0398083276510235,-0.0786918103694915,-0.0071821492165327,-0.8056163191795349
1783201505443448000,7.690447998046875,-0.031662089459598,0.5035550865709781,0.6676221976995468,-0.1575506776571273,-0.0127231227234005,-0.7544575333595276
1783201505453385200,7.70038525390625,-0.0217088507220149,0.513540474012494,0.337812151184678,-0.217385858297348,-0.020919082686305,-0.6939283013343811
1783201505463322000,7.710322021484375,-0.0070873279124498,0.6787187612533568,0.0218131878793239,-0.2570733726024627,-0.0733913481235504,-0.6220357418060303
1783201505473259300,7.72025927734375,-0.0578168867398053,0.8248965799480676,-0.2135316915214061,-0.2905156016349792,-0.160496100783348,-0.576342761516571
1783201505483196000,7.73019580078125,-0.2853165325328707,0.9610545244097708,-0.3203133193731308,-0.329499751329422,-0.2427220046520233,-0.5950114727020264
1783201505493133000,7.740133056640625,-0.5723574777055531,0.9776233818948268,-0.4097176959663629,-0.3695536851882934,-0.30181685090065,-0.6575301289558411
1783201505503070200,7.7500703125,-0.7637909538611769,0.81659286198318,-0.5142553442835808,-0.3894376456737518,-0.3236768841743469,-0.7455771565437317
1783201505513007000,7.760007080078125,-0.7198492285430431,0.6558207007467747,-0.6853811417520046,-0.3860722184181213,-0.2875718772411346,-0.8146533966064453
1783201505522945300,7.7699453125,-0.4339861680433154,0.5439572395861149,-0.8416086452960968,-0.3739615082740783,-0.2185992002487182,-0.8412107229232788
1783201505532882200,7.779882080078125,-0.1199124737121164,0.3427349945396185,-1.1279010371237992,-0.3490264415740967,-0.1632231175899505,-0.822547972202301
1783201505542819000,7.789819091796875,0.091512893179804,0.0584141950458288,-1.43708038354218,-0.328603982925415,-0.1121346428990364,-0.7768446803092957
1783201505552756000,7.799755859375,0.2125520328342914,-0.12167290751338,-1.665062625220418,-0.3186586499214172,-0.0707331299781799,-0.7196124792098999
1783201505562693000,7.809693115234375,0.3194887051172554,-0.1660094773679971,-1.868538202151656,-0.3128966391086578,-0.0894412994384765,-0.6500182151794434
1783201505572630300,7.81963037109375,0.3484960422843694,-0.2027951934516429,-2.118002207797766,-0.2982078194618225,-0.1814236789941787,-0.5768541097640991
1783201505582567200,7.829567138671875,0.2778887206196785,-0.2239490406394004,-2.350478838285804,-0.271900326013565,-0.3467282056808471,-0.5174823999404907
1783201505592504000,7.839504150390625,0.1428030815646052,-0.1759451804488897,-2.505774029415846,-0.2185783088207245,-0.575767457485199,-0.4732493758201599
1783201505602441000,7.84944091796875,0.04952990071401,-0.0871294173985719,-2.6076597019195558,-0.135894626379013,-0.8308711051940918,-0.4530248045921325
1783201505612378000,7.859378173828125,-0.0696212332367897,0.0258837983191013,-2.419261282610893,-0.032796461135149,-1.02406907081604,-0.4716781079769134
1783201505622315300,7.869315185546875,-0.2537019354768097,0.1869400371938943,-1.896905049458146,0.0717344731092453,-1.1515761613845823,-0.5352776050567627
1783201505632252200,7.879252197265625,-0.4205646686732768,0.4052683153420686,-1.2018705286979674,0.1788052171468734,-1.1943323612213137,-0.6350052356719971
1783201505642189000,7.88918896484375,-0.451652173115313,0.5841279219329357,-0.3592167582631111,0.275471031665802,-1.1147406101226809,-0.7494606971740723
1783201505652126000,7.8991259765625,-0.2935013002932071,0.7675941455364227,0.5474234543919563,0.3447684347629547,-0.9201991558074952,-0.8524051308631897
